{
 "info": {
  "description": "A reference to a document",
  "title": "FHIR R4 DocumentReference Resource",
  "version": "r4"
 },
 "openapi": "3.0.1",
 "servers": [
  {
   "url": "/fhir/r4"
  }
 ],
 "components": {
  "schemas": {
   "DocumentReference": {
    "description": "A reference to a document",
    "type": "object",
    "properties": {
     "authenticator": {
      "type": "object",
      "allOf": [
       {
        "$ref": "#/components/schemas/Reference"
       }
      ],
      "description": "Who/what authenticated the document"
     },
     "author": {
      "type": "array",
      "items": {
       "$ref": "#/components/schemas/Reference"
      },
      "description": "Who and/or what authored the document"
     },
     "category": {
      "type": "array",
      "items": {
       "$ref": "#/components/schemas/CodeableConcept"
      },
      "description": "Categorization of document"
     },
     "contained": {
      "type": "array",
      "items": {
       "$ref": "#/components/schemas/Resource"
      },
      "description": "Contained, inline Resources"
     },
     "content": {
      "type": "array",
      "items": {
       "$ref": "#/components/schemas/DocumentReference.content"
      },
      "description": "Document referenced"
     },
     "context": {
      "type": "object",
      "allOf": [
       {
        "$ref": "#/components/schemas/DocumentReference.context"
       }
      ],
      "description": "Clinical context of document"
     },
     "custodian": {
      "type": "object",
      "allOf": [
       {
        "$ref": "#/components/schemas/Reference"
       }
      ],
      "description": "Organization which maintains the document"
     },
     "date": {
      "type": "string",
      "description": "When this document reference was created"
     },
     "description": {
      "type": "string",
      "description": "Human-readable description"
     },
     "docStatus": {
      "type": "string",
      "description": "preliminary | final | amended | entered-in-error"
     },
     "id": {
      "type": "string",
      "description": "Logical id of this artifact"
     },
     "identifier": {
      "type": "array",
      "items": {
       "$ref": "#/components/schemas/Identifier"
      },
      "description": "Other identifiers for the document"
     },
     "implicitRules": {
      "type": "string",
      "description": "A set of rules under which this content was created"
     },
     "language": {
      "type": "string",
      "description": "Language of the resource content"
     },
     "masterIdentifier": {
      "type": "object",
      "allOf": [
       {
        "$ref": "#/components/schemas/Identifier"
       }
      ],
      "description": "Master Version Specific Identifier"
     },
     "meta": {
      "type": "object",
      "allOf": [
       {
        "$ref": "#/components/schemas/Meta"
       }
      ],
      "description": "Metadata about the resource"
     },
     "relatesTo": {
      "type": "array",
      "items": {
       "$ref": "#/components/schemas/DocumentReference.relatesTo"
      },
      "description": "Relationships to other documents"
     },
     "securityLabel": {
      "type": "array",
      "items": {
       "$ref": "#/components/schemas/CodeableConcept"
      },
      "description": "Document security-tags"
     },
     "status": {
      "type": "string",
      "description": "current | superseded | entered-in-error"
     },
     "subject": {
      "type": "object",
      "allOf": [
       {
        "$ref": "#/components/schemas/Reference"
       }
      ],
      "description": "Who/what is the subject of the document"
     },
     "text": {
      "type": "object",
      "allOf": [
       {
        "$ref": "#/components/schemas/Narrative"
       }
      ],
      "description": "Text summary of the resource, for human interpretation"
     },
     "type": {
      "type": "object",
      "allOf": [
       {
        "$ref": "#/components/schemas/CodeableConcept"
       }
      ],
      "description": "Kind of document (LOINC if possible)"
     }
    },
    "required": [
     "id"
    ]
   },
   "DocumentReference.content": {
    "description": "",
    "type": "object",
    "properties": {
     "attachment": {
      "type": "object",
      "allOf": [
       {
        "$ref": "#/components/schemas/Attachment"
       }
      ],
      "description": "Where to access the document"
     },
     "format": {
      "type": "object",
      "allOf": [
       {
        "$ref": "#/components/schemas/Coding"
       }
      ],
      "description": "Format/content rules for the document"
     },
     "id": {
      "type": "string",
      "description": "Unique id for inter-element referencing"
     }
    },
    "required": [
     "id"
    ]
   },
   "DocumentReference.context": {
    "description": "",
    "type": "object",
    "properties": {
     "encounter": {
      "type": "array",
      "items": {
       "$ref": "#/components/schemas/Reference"
      },
      "description": "Context of the document  content"
     },
     "event": {
      "type": "array",
      "items": {
       "$ref": "#/components/schemas/CodeableConcept"
      },
      "description": "Main clinical acts documented"
     },
     "facilityType": {
      "type": "object",
      "allOf": [
       {
        "$ref": "#/components/schemas/CodeableConcept"
       }
      ],
      "description": "Kind of facility where patient was seen"
     },
     "id": {
      "type": "string",
      "description": "Unique id for inter-element referencing"
     },
     "period": {
      "type": "object",
      "allOf": [
       {
        "$ref": "#/components/schemas/Period"
       }
      ],
      "description": "Time of service that is being documented"
     },
     "practiceSetting": {
      "type": "object",
      "allOf": [
       {
        "$ref": "#/components/schemas/CodeableConcept"
       }
      ],
      "description": "Additional details about where the content was created (e.g. clinical specialty)"
     },
     "related": {
      "type": "array",
      "items": {
       "$ref": "#/components/schemas/Reference"
      },
      "description": "Related identifiers or resources"
     },
     "sourcePatientInfo": {
      "type": "object",
      "allOf": [
       {
        "$ref": "#/components/schemas/Reference"
       }
      ],
      "description": "Patient demographics from source"
     }
    },
    "required": [
     "id"
    ]
   },
   "DocumentReference.relatesTo": {
    "description": "",
    "type": "object",
    "properties": {
     "code": {
      "type": "string",
      "description": "replaces | transforms | signs | appends"
     },
     "id": {
      "type": "string",
      "description": "Unique id for inter-element referencing"
     },
     "target": {
      "type": "object",
      "allOf": [
       {
        "$ref": "#/components/schemas/Reference"
       }
      ],
      "description": "Target of the relationship"
     }
    },
    "required": [
     "id"
    ]
   },
   "Reference": {
    "description": "",
    "type": "object",
    "properties": {
     "display": {
      "type": "string",
      "description": "Text alternative for the resource"
     },
     "id": {
      "type": "string",
      "description": ""
     },
     "identifier": {
      "type": "object",
      "allOf": [
       {
        "$ref": "#/components/schemas/Identifier"
       }
      ],
      "description": "Logical reference, when literal reference is not known"
     },
     "reference": {
      "type": "string",
      "description": "Literal reference, Relative, internal or absolute URL"
     },
     "type": {
      "type": "string",
      "description": "Type the reference refers to (e.g. \"Patient\")"
     }
    },
    "required": [
     "id"
    ]
   },
   "CodeableConcept": {
    "description": "",
    "type": "object",
    "properties": {
     "coding": {
      "type": "array",
      "items": {
       "$ref": "#/components/schemas/Coding"
      },
      "description": "Code defined by a terminology system"
     },
     "id": {
      "type": "string",
      "description": ""
     },
     "text": {
      "type": "string",
      "description": "Plain text representation of the concept"
     }
    },
    "required": [
     "id"
    ]
   },
   "Resource": {
    "description": "Base Resource",
    "type": "object",
    "properties": {
     "id": {
      "type": "string",
      "description": "Logical id of this artifact"
     },
     "implicitRules": {
      "type": "string",
      "description": "A set of rules under which this content was created"
     },
     "language": {
      "type": "string",
      "description": "Language of the resource content"
     },
     "meta": {
      "type": "object",
      "allOf": [
       {
        "$ref": "#/components/schemas/Meta"
       }
      ],
      "description": "Metadata about the resource"
     }
    },
    "required": [
     "id"
    ]
   },
   "Extension": {
    "description": "",
    "type": "object",
    "properties": {
     "id": {
      "type": "string",
      "description": ""
     },
     "url": {
      "type": "string",
      "description": "identifies the meaning of the extension"
     },
     "value": {
      "description": ""
     },
     "valueAddress": {
      "type": "object",
      "allOf": [
       {
        "$ref": "#/components/schemas/Address"
       }
      ],
      "description": ""
     },
     "valueAge": {
      "type": "object",
      "allOf": [
       {
        "$ref": "#/components/schemas/Age"
       }
      ],
      "description": ""
     },
     "valueAnnotation": {
      "type": "object",
      "allOf": [
       {
        "$ref": "#/components/schemas/Annotation"
       }
      ],
      "description": ""
     },
     "valueAttachment": {
      "type": "object",
      "allOf": [
       {
        "$ref": "#/components/schemas/Attachment"
       }
      ],
      "description": ""
     },
     "valueBase64Binary": {
      "type": "string",
      "description": ""
     },
     "valueBoolean": {
      "type": "boolean",
      "description": ""
     },
     "valueCanonical": {
      "type": "string",
      "description": ""
     },
     "valueCode": {
      "type": "string",
      "description": ""
     },
     "valueCodeableConcept": {
      "type": "object",
      "allOf": [
       {
        "$ref": "#/components/schemas/CodeableConcept"
       }
      ],
      "description": ""
     },
     "valueCoding": {
      "type": "object",
      "allOf": [
       {
        "$ref": "#/components/schemas/Coding"
       }
      ],
      "description": ""
     },
     "valueContactDetail": {
      "type": "object",
      "allOf": [
       {
        "$ref": "#/components/schemas/ContactDetail"
       }
      ],
      "description": ""
     },
     "valueContactPoint": {
      "type": "object",
      "allOf": [
       {
        "$ref": "#/components/schemas/ContactPoint"
       }
      ],
      "description": ""
     },
     "valueContributor": {
      "type": "object",
      "allOf": [
       {
        "$ref": "#/components/schemas/Contributor"
       }
      ],
      "description": ""
     },
     "valueCount": {
      "type": "object",
      "allOf": [
       {
        "$ref": "#/components/schemas/Count"
       }
      ],
      "description": ""
     },
     "valueDataRequirement": {
      "type": "object",
      "allOf": [
       {
        "$ref": "#/components/schemas/DataRequirement"
       }
      ],
      "description": ""
     },
     "valueDate": {
      "type": "string",
      "description": ""
     },
     "valueDateTime": {
      "type": "string",
      "description": ""
     },
     "valueDecimal": {
      "type": "number",
      "description": ""
     },
     "valueDistance": {
      "type": "object",
      "allOf": [
       {
        "$ref": "#/components/schemas/Distance"
       }
      ],
      "description": ""
     },
     "valueDosage": {
      "type": "object",
      "allOf": [
       {
        "$ref": "#/components/schemas/Dosage"
       }
      ],
      "description": ""
     },
     "valueDuration": {
      "type": "object",
      "allOf": [
       {
        "$ref": "#/components/schemas/Duration"
       }
      ],
      "description": ""
     },
     "valueExpression": {
      "type": "object",
      "allOf": [
       {
        "$ref": "#/components/schemas/Expression"
       }
      ],
      "description": ""
     },
     "valueHumanName": {
      "type": "object",
      "allOf": [
       {
        "$ref": "#/components/schemas/HumanName"
       }
      ],
      "description": ""
     },
     "valueId": {
      "type": "string",
      "description": ""
     },
     "valueIdentifier": {
      "type": "object",
      "allOf": [
       {
        "$ref": "#/components/schemas/Identifier"
       }
      ],
      "description": ""
     },
     "valueInstant": {
      "type": "string",
      "description": ""
     },
     "valueInteger": {
      "type": "number",
      "description": ""
     },
     "valueMarkdown": {
      "type": "string",
      "description": ""
     },
     "valueMeta": {
      "type": "object",
      "allOf": [
       {
        "$ref": "#/components/schemas/Meta"
       }
      ],
      "description": ""
     },
     "valueMoney": {
      "type": "object",
      "allOf": [
       {
        "$ref": "#/components/schemas/Money"
       }
      ],
      "description": ""
     },
     "valueOid": {
      "type": "string",
      "description": ""
     },
     "valueParameterDefinition": {
      "type": "object",
      "allOf": [
       {
        "$ref": "#/components/schemas/ParameterDefinition"
       }
      ],
      "description": ""
     },
     "valuePeriod": {
      "type": "object",
      "allOf": [
       {
        "$ref": "#/components/schemas/Period"
       }
      ],
      "description": ""
     },
     "valuePositiveInt": {
      "type": "number",
      "description": ""
     },
     "valueQuantity": {
      "type": "object",
      "allOf": [
       {
        "$ref": "#/components/schemas/Quantity"
       }
      ],
      "description": ""
     },
     "valueRange": {
      "type": "object",
      "allOf": [
       {
        "$ref": "#/components/schemas/Range"
       }
      ],
      "description": ""
     },
     "valueRatio": {
      "type": "object",
      "allOf": [
       {
        "$ref": "#/components/schemas/Ratio"
       }
      ],
      "description": ""
     },
     "valueReference": {
      "type": "object",
      "allOf": [
       {
        "$ref": "#/components/schemas/Reference"
       }
      ],
      "description": ""
     },
     "valueRelatedArtifact": {
      "type": "object",
      "allOf": [
       {
        "$ref": "#/components/schemas/RelatedArtifact"
       }
      ],
      "description": ""
     },
     "valueSampledData": {
      "type": "object",
      "allOf": [
       {
        "$ref": "#/components/schemas/SampledData"
       }
      ],
      "description": ""
     },
     "valueSignature": {
      "type": "object",
      "allOf": [
       {
        "$ref": "#/components/schemas/Signature"
       }
      ],
      "description": ""
     },
     "valueString": {
      "type": "string",
      "description": ""
     },
     "valueTime": {
      "type": "string",
      "description": ""
     },
     "valueTiming": {
      "type": "object",
      "allOf": [
       {
        "$ref": "#/components/schemas/Timing"
       }
      ],
      "description": ""
     },
     "valueTriggerDefinition": {
      "type": "object",
      "allOf": [
       {
        "$ref": "#/components/schemas/TriggerDefinition"
       }
      ],
      "description": ""
     },
     "valueUnsignedInt": {
      "type": "number",
      "description": ""
     },
     "valueUri": {
      "type": "string",
      "description": ""
     },
     "valueUrl": {
      "type": "string",
      "description": ""
     },
     "valueUsageContext": {
      "type": "object",
      "allOf": [
       {
        "$ref": "#/components/schemas/UsageContext"
       }
      ],
      "description": ""
     },
     "valueUuid": {
      "type": "string",
      "description": ""
     }
    },
    "required": [
     "id"
    ]
   },
   "Identifier": {
    "description": "",
    "type": "object",
    "properties": {
     "assigner": {
      "type": "string",
      "description": "Organization that issued id (may be just text)"
     },
     "id": {
      "type": "string",
      "description": ""
     },
     "period": {
      "type": "object",
      "allOf": [
       {
        "$ref": "#/components/schemas/Period"
       }
      ],
      "description": "Time period when id is/was valid for use"
     },
     "system": {
      "type": "string",
      "description": "The namespace for the identifier value"
     },
     "type": {
      "type": "object",
      "allOf": [
       {
        "$ref": "#/components/schemas/CodeableConcept"
       }
      ],
      "description": "Description of identifier"
     },
     "use": {
      "type": "string",
      "description": "usual | official | temp | secondary | old (If known)"
     },
     "value": {
      "type": "string",
      "description": "The value that is unique"
     }
    },
    "required": [
     "id"
    ]
   },
   "Meta": {
    "description": "",
    "type": "object",
    "properties": {
     "id": {
      "type": "string",
      "description": ""
     },
     "lastUpdated": {
      "type": "string",
      "description": "When the resource version last changed"
     },
     "profile": {
      "type": "string",
      "description": "Profiles this resource claims to conform to"
     },
     "security": {
      "type": "array",
      "items": {
       "$ref": "#/components/schemas/Coding"
      },
      "description": "Security Labels applied to this resource"
     },
     "source": {
      "type": "string",
      "description": "Identifies where the resource comes from"
     },
     "tag": {
      "type": "array",
      "items": {
       "$ref": "#/components/schemas/Coding"
      },
      "description": "Tags applied to this resource"
     },
     "versionId": {
      "type": "string",
      "description": "Version specific identifier"
     }
    },
    "required": [
     "id"
    ]
   },
   "Narrative": {
    "description": "",
    "type": "object",
    "properties": {
     "div": {
      "description": "Limited xhtml content"
     },
     "id": {
      "type": "string",
      "description": ""
     },
     "status": {
      "type": "string",
      "description": "generated | extensions | additional | empty"
     }
    },
    "required": [
     "id"
    ]
   },
   "Coding": {
    "description": "",
    "type": "object",
    "properties": {
     "code": {
      "type": "string",
      "description": "Symbol in syntax defined by the system"
     },
     "display": {
      "type": "string",
      "description": "Representation defined by the system"
     },
     "id": {
      "type": "string",
      "description": ""
     },
     "system": {
      "type": "string",
      "description": "Identity of the terminology system"
     },
     "userSelected": {
      "type": "boolean",
      "description": "If this coding was chosen directly by the user"
     },
     "version": {
      "type": "string",
      "description": "Version of the system - if relevant"
     }
    },
    "required": [
     "id"
    ]
   },
   "Period": {
    "description": "",
    "type": "object",
    "properties": {
     "end": {
      "type": "string",
      "description": "End time with inclusive boundary, if not ongoing"
     },
     "id": {
      "type": "string",
      "description": ""
     },
     "start": {
      "type": "string",
      "description": "Starting time with inclusive boundary"
     }
    },
    "required": [
     "id"
    ]
   },
   "Attachment": {
    "description": "",
    "type": "object",
    "properties": {
     "contentType": {
      "type": "string",
      "description": "Mime type of the content, with charset etc."
     },
     "creation": {
      "type": "string",
      "description": "Date attachment was first created"
     },
     "data": {
      "type": "string",
      "description": "Data inline, base64ed"
     },
     "hash": {
      "type": "string",
      "description": "Hash of the data (sha-1, base64ed)"
     },
     "id": {
      "type": "string",
      "description": ""
     },
     "language": {
      "type": "string",
      "description": "Human language of the content (BCP-47)"
     },
     "size": {
      "type": "number",
      "description": "Number of bytes of content (if url provided)"
     },
     "title": {
      "type": "string",
      "description": "Label to display in place of the data"
     },
     "url": {
      "type": "string",
      "description": "Uri where the data can be found"
     }
    },
    "required": [
     "id"
    ]
   },
   "Address": {
    "description": "",
    "type": "object",
    "properties": {
     "city": {
      "type": "string",
      "description": "Name of city, town etc."
     },
     "country": {
      "type": "string",
      "description": "Country (e.g. can be ISO 3166 2 or 3 letter code)"
     },
     "district": {
      "type": "string",
      "description": "District name (aka county)"
     },
     "id": {
      "type": "string",
      "description": ""
     },
     "line": {
      "type": "string",
      "description": "Street name, number, direction & P.O. Box etc."
     },
     "period": {
      "type": "object",
      "allOf": [
       {
        "$ref": "#/components/schemas/Period"
       }
      ],
      "description": "Time period when address was/is in use"
     },
     "postalCode": {
      "type": "string",
      "description": "Postal code for area"
     },
     "state": {
      "type": "string",
      "description": "Sub-unit of country (abbreviations ok)"
     },
     "text": {
      "type": "string",
      "description": "Text representation of the address"
     },
     "type": {
      "type": "string",
      "description": "postal | physical | both"
     },
     "use": {
      "type": "string",
      "description": "home | work | temp | old | billing - purpose of this address"
     }
    },
    "required": [
     "id"
    ]
   },
   "Age": {
    "description": "",
    "type": "object",
    "properties": {
     "code": {
      "type": "string",
      "description": ""
     },
     "comparator": {
      "type": "string",
      "description": ""
     },
     "id": {
      "type": "string",
      "description": ""
     },
     "system": {
      "type": "string",
      "description": ""
     },
     "unit": {
      "type": "string",
      "description": ""
     },
     "value": {
      "type": "number",
      "description": ""
     }
    },
    "required": [
     "id"
    ]
   },
   "Annotation": {
    "description": "",
    "type": "object",
    "properties": {
     "author": {
      "description": ""
     },
     "authorReference": {
      "type": "object",
      "allOf": [
       {
        "$ref": "#/components/schemas/Reference"
       }
      ],
      "description": ""
     },
     "authorString": {
      "type": "string",
      "description": ""
     },
     "id": {
      "type": "string",
      "description": ""
     },
     "text": {
      "type": "string",
      "description": "The annotation  - text content (as markdown)"
     },
     "time": {
      "type": "string",
      "description": "When the annotation was made"
     }
    },
    "required": [
     "id"
    ]
   },
   "ContactDetail": {
    "description": "",
    "type": "object",
    "properties": {
     "id": {
      "type": "string",
      "description": ""
     },
     "name": {
      "type": "string",
      "description": "Name of an individual to contact"
     },
     "telecom": {
      "type": "array",
      "items": {
       "$ref": "#/components/schemas/ContactPoint"
      },
      "description": "Contact details for individual or organization"
     }
    },
    "required": [
     "id"
    ]
   },
   "ContactPoint": {
    "description": "",
    "type": "object",
    "properties": {
     "id": {
      "type": "string",
      "description": ""
     },
     "period": {
      "type": "object",
      "allOf": [
       {
        "$ref": "#/components/schemas/Period"
       }
      ],
      "description": "Time period when the contact point was/is in use"
     },
     "rank": {
      "type": "number",
      "description": "Specify preferred order of use (1 = highest)"
     },
     "system": {
      "type": "string",
      "description": "phone | fax | email | pager | url | sms | other"
     },
     "use": {
      "type": "string",
      "description": "home | work | temp | old | mobile - purpose of this contact point"
     },
     "value": {
      "type": "string",
      "description": "The actual contact point details"
     }
    },
    "required": [
     "id"
    ]
   },
   "Contributor": {
    "description": "",
    "type": "object",
    "properties": {
     "contact": {
      "type": "array",
      "items": {
       "$ref": "#/components/schemas/ContactDetail"
      },
      "description": "Contact details of the contributor"
     },
     "id": {
      "type": "string",
      "description": ""
     },
     "name": {
      "type": "string",
      "description": "Who contributed the content"
     },
     "type": {
      "type": "string",
      "description": "author | editor | reviewer | endorser"
     }
    },
    "required": [
     "id"
    ]
   },
   "Count": {
    "description": "",
    "type": "object",
    "properties": {
     "code": {
      "type": "string",
      "description": ""
     },
     "comparator": {
      "type": "string",
      "description": ""
     },
     "id": {
      "type": "string",
      "description": ""
     },
     "system": {
      "type": "string",
      "description": ""
     },
     "unit": {
      "type": "string",
      "description": ""
     },
     "value": {
      "type": "number",
      "description": ""
     }
    },
    "required": [
     "id"
    ]
   },
   "DataRequirement": {
    "description": "",
    "type": "object",
    "properties": {
     "codeFilter": {
      "type": "array",
      "items": {
       "$ref": "#/components/schemas/DataRequirement.codeFilter"
      },
      "description": ""
     },
     "dateFilter": {
      "type": "array",
      "items": {
       "$ref": "#/components/schemas/DataRequirement.dateFilter"
      },
      "description": ""
     },
     "id": {
      "type": "string",
      "description": ""
     },
     "limit": {
      "type": "number",
      "description": "Number of results"
     },
     "mustSupport": {
      "type": "string",
      "description": "Indicates specific structure elements that are referenced by the knowledge module"
     },
     "profile": {
      "type": "string",
      "description": "The profile of the required data"
     },
     "sort": {
      "type": "array",
      "items": {
       "$ref": "#/components/schemas/DataRequirement.sort"
      },
      "description": ""
     },
     "subject": {
      "description": ""
     },
     "subjectCodeableConcept": {
      "type": "object",
      "allOf": [
       {
        "$ref": "#/components/schemas/CodeableConcept"
       }
      ],
      "description": ""
     },
     "subjectReference": {
      "type": "object",
      "allOf": [
       {
        "$ref": "#/components/schemas/Reference"
       }
      ],
      "description": ""
     },
     "type": {
      "type": "string",
      "description": "The type of the required data"
     }
    },
    "required": [
     "id"
    ]
   },
   "Distance": {
    "description": "",
    "type": "object",
    "properties": {
     "code": {
      "type": "string",
      "description": ""
     },
     "comparator": {
      "type": "string",
      "description": ""
     },
     "id": {
      "type": "string",
      "description": ""
     },
     "system": {
      "type": "string",
      "description": ""
     },
     "unit": {
      "type": "string",
      "description": ""
     },
     "value": {
      "type": "number",
      "description": ""
     }
    },
    "required": [
     "id"
    ]
   },
   "Dosage": {
    "description": "",
    "type": "object",
    "properties": {
     "additionalInstruction": {
      "type": "array",
      "items": {
       "$ref": "#/components/schemas/CodeableConcept"
      },
      "description": ""
     },
     "asNeeded": {
      "description": ""
     },
     "asNeededBoolean": {
      "type": "boolean",
      "description": ""
     },
     "asNeededCodeableConcept": {
      "type": "object",
      "allOf": [
       {
        "$ref": "#/components/schemas/CodeableConcept"
       }
      ],
      "description": ""
     },
     "doseAndRate": {
      "type": "array",
      "items": {
       "$ref": "#/components/schemas/Dosage.doseAndRate"
      },
      "description": ""
     },
     "id": {
      "type": "string",
      "description": ""
     },
     "maxDosePerAdministration": {
      "type": "object",
      "allOf": [
       {
        "$ref": "#/components/schemas/Quantity"
       }
      ],
      "description": ""
     },
     "maxDosePerLifetime": {
      "type": "object",
      "allOf": [
       {
        "$ref": "#/components/schemas/Quantity"
       }
      ],
      "description": ""
     },
     "maxDosePerPeriod": {
      "type": "object",
      "allOf": [
       {
        "$ref": "#/components/schemas/Ratio"
       }
      ],
      "description": ""
     },
     "method": {
      "type": "object",
      "allOf": [
       {
        "$ref": "#/components/schemas/CodeableConcept"
       }
      ],
      "description": ""
     },
     "patientInstruction": {
      "type": "string",
      "description": ""
     },
     "route": {
      "type": "object",
      "allOf": [
       {
        "$ref": "#/components/schemas/CodeableConcept"
       }
      ],
      "description": ""
     },
     "sequence": {
      "type": "number",
      "description": ""
     },
     "site": {
      "type": "object",
      "allOf": [
       {
        "$ref": "#/components/schemas/CodeableConcept"
       }
      ],
      "description": ""
     },
     "text": {
      "type": "string",
      "description": ""
     },
     "timing": {
      "type": "object",
      "allOf": [
       {
        "$ref": "#/components/schemas/Timing"
       }
      ],
      "description": ""
     }
    },
    "required": [
     "id"
    ]
   },
   "Duration": {
    "description": "",
    "type": "object",
    "properties": {
     "code": {
      "type": "string",
      "description": ""
     },
     "comparator": {
      "type": "string",
      "description": ""
     },
     "id": {
      "type": "string",
      "description": ""
     },
     "system": {
      "type": "string",
      "description": ""
     },
     "unit": {
      "type": "string",
      "description": ""
     },
     "value": {
      "type": "number",
      "description": ""
     }
    },
    "required": [
     "id"
    ]
   },
   "Expression": {
    "description": "",
    "type": "object",
    "properties": {
     "description": {
      "type": "string",
      "description": "Natural language description of the condition"
     },
     "expression": {
      "type": "string",
      "description": "Expression in specified language"
     },
     "id": {
      "type": "string",
      "description": ""
     },
     "language": {
      "type": "string",
      "description": "text/cql | text/fhirpath | application/x-fhir-query | etc."
     },
     "name": {
      "type": "string",
      "description": "Short name assigned to expression for reuse"
     },
     "reference": {
      "type": "string",
      "description": "Where the expression is found"
     }
    },
    "required": [
     "id"
    ]
   },
   "HumanName": {
    "description": "",
    "type": "object",
    "properties": {
     "family": {
      "type": "string",
      "description": "Family name (often called 'Surname')"
     },
     "given": {
      "type": "string",
      "description": "Given names (not always 'first'). Includes middle names"
     },
     "id": {
      "type": "string",
      "description": ""
     },
     "period": {
      "type": "object",
      "allOf": [
       {
        "$ref": "#/components/schemas/Period"
       }
      ],
      "description": "Time period when name was/is in use"
     },
     "prefix": {
      "type": "string",
      "description": "Parts that come before the name"
     },
     "suffix": {
      "type": "string",
      "description": "Parts that come after the name"
     },
     "text": {
      "type": "string",
      "description": "Text representation of the full name"
     },
     "use": {
      "type": "string",
      "description": "usual | official | temp | nickname | anonymous | old | maiden"
     }
    },
    "required": [
     "id"
    ]
   },
   "Money": {
    "description": "",
    "type": "object",
    "properties": {
     "currency": {
      "type": "string",
      "description": "ISO 4217 Currency Code"
     },
     "id": {
      "type": "string",
      "description": ""
     },
     "value": {
      "type": "number",
      "description": "Numerical value (with implicit precision)"
     }
    },
    "required": [
     "id"
    ]
   },
   "ParameterDefinition": {
    "description": "",
    "type": "object",
    "properties": {
     "documentation": {
      "type": "string",
      "description": "A brief description of the parameter"
     },
     "id": {
      "type": "string",
      "description": ""
     },
     "max": {
      "type": "string",
      "description": "Maximum cardinality (a number of *)"
     },
     "min": {
      "type": "number",
      "description": "Minimum cardinality"
     },
     "name": {
      "type": "string",
      "description": "Name used to access the parameter value"
     },
     "profile": {
      "type": "string",
      "description": "What profile the value is expected to be"
     },
     "type": {
      "type": "string",
      "description": "What type of value"
     },
     "use": {
      "type": "string",
      "description": "in | out"
     }
    },
    "required": [
     "id"
    ]
   },
   "Quantity": {
    "description": "",
    "type": "object",
    "properties": {
     "code": {
      "type": "string",
      "description": "Coded form of the unit"
     },
     "comparator": {
      "type": "string",
      "description": "< | <= | >= | > - how to understand the value"
     },
     "id": {
      "type": "string",
      "description": "Unique id for inter-element referencing"
     },
     "system": {
      "type": "string",
      "description": "System that defines coded unit form"
     },
     "unit": {
      "type": "string",
      "description": "Unit representation"
     },
     "value": {
      "type": "number",
      "description": "Numerical value (with implicit precision)"
     }
    },
    "required": [
     "id"
    ]
   },
   "Range": {
    "description": "",
    "type": "object",
    "properties": {
     "high": {
      "type": "object",
      "allOf": [
       {
        "$ref": "#/components/schemas/Quantity"
       }
      ],
      "description": "High limit"
     },
     "id": {
      "type": "string",
      "description": ""
     },
     "low": {
      "type": "object",
      "allOf": [
       {
        "$ref": "#/components/schemas/Quantity"
       }
      ],
      "description": "Low limit"
     }
    },
    "required": [
     "id"
    ]
   },
   "Ratio": {
    "description": "",
    "type": "object",
    "properties": {
     "denominator": {
      "type": "object",
      "allOf": [
       {
        "$ref": "#/components/schemas/Quantity"
       }
      ],
      "description": "Denominator value"
     },
     "id": {
      "type": "string",
      "description": ""
     },
     "numerator": {
      "type": "object",
      "allOf": [
       {
        "$ref": "#/components/schemas/Quantity"
       }
      ],
      "description": "Numerator value"
     }
    },
    "required": [
     "id"
    ]
   },
   "RelatedArtifact": {
    "description": "",
    "type": "object",
    "properties": {
     "citation": {
      "type": "string",
      "description": "Bibliographic citation for the artifact"
     },
     "display": {
      "type": "string",
      "description": "Brief description of the related artifact"
     },
     "document": {
      "type": "object",
      "allOf": [
       {
        "$ref": "#/components/schemas/Attachment"
       }
      ],
      "description": "What document is being referenced"
     },
     "id": {
      "type": "string",
      "description": ""
     },
     "label": {
      "type": "string",
      "description": "Short label"
     },
     "resource": {
      "type": "string",
      "description": "What resource is being referenced"
     },
     "type": {
      "type": "string",
      "description": "documentation | justification | citation | predecessor | successor | derived-from | depends-on | composed-of"
     },
     "url": {
      "type": "string",
      "description": "Where the artifact can be accessed"
     }
    },
    "required": [
     "id"
    ]
   },
   "SampledData": {
    "description": "",
    "type": "object",
    "properties": {
     "data": {
      "type": "string",
      "description": "Decimal values with spaces, or \"E\" | \"U\" | \"L\""
     },
     "dimensions": {
      "type": "number",
      "description": "Number of sample points at each time point"
     },
     "factor": {
      "type": "number",
      "description": "Multiply data by this before adding to origin"
     },
     "id": {
      "type": "string",
      "description": ""
     },
     "lowerLimit": {
      "type": "number",
      "description": "Lower limit of detection"
     },
     "origin": {
      "type": "object",
      "allOf": [
       {
        "$ref": "#/components/schemas/Quantity"
       }
      ],
      "description": "Zero value and units"
     },
     "period": {
      "type": "number",
      "description": "Number of milliseconds between samples"
     },
     "upperLimit": {
      "type": "number",
      "description": "Upper limit of detection"
     }
    },
    "required": [
     "id"
    ]
   },
   "Signature": {
    "description": "",
    "type": "object",
    "properties": {
     "data": {
      "type": "string",
      "description": "The actual signature content (XML DigSig. JWS, picture, etc.)"
     },
     "id": {
      "type": "string",
      "description": ""
     },
     "onBehalfOf": {
      "type": "object",
      "allOf": [
       {
        "$ref": "#/components/schemas/Reference"
       }
      ],
      "description": "The party represented"
     },
     "sigFormat": {
      "type": "string",
      "description": "The technical format of the signature"
     },
     "targetFormat": {
      "type": "string",
      "description": "The technical format of the signed resources"
     },
     "type": {
      "type": "array",
      "items": {
       "$ref": "#/components/schemas/Coding"
      },
      "description": "Indication of the reason the entity signed the object(s)"
     },
     "when": {
      "type": "string",
      "description": "When the signature was created"
     },
     "who": {
      "type": "object",
      "allOf": [
       {
        "$ref": "#/components/schemas/Reference"
       }
      ],
      "description": "Who signed"
     }
    },
    "required": [
     "id"
    ]
   },
   "Timing": {
    "description": "",
    "type": "object",
    "properties": {
     "code": {
      "type": "object",
      "allOf": [
       {
        "$ref": "#/components/schemas/CodeableConcept"
       }
      ],
      "description": ""
     },
     "event": {
      "type": "string",
      "description": ""
     },
     "id": {
      "type": "string",
      "description": ""
     },
     "repeat": {
      "type": "object",
      "allOf": [
       {
        "$ref": "#/components/schemas/Timing.repeat"
       }
      ],
      "description": ""
     }
    },
    "required": [
     "id"
    ]
   },
   "TriggerDefinition": {
    "description": "",
    "type": "object",
    "properties": {
     "condition": {
      "type": "object",
      "allOf": [
       {
        "$ref": "#/components/schemas/Expression"
       }
      ],
      "description": "Whether the event triggers (boolean expression)"
     },
     "data": {
      "type": "array",
      "items": {
       "$ref": "#/components/schemas/DataRequirement"
      },
      "description": "Triggering data of the event (multiple = 'and')"
     },
     "id": {
      "type": "string",
      "description": ""
     },
     "name": {
      "type": "string",
      "description": "Name or URI that identifies the event"
     },
     "timing": {
      "description": ""
     },
     "timingDate": {
      "type": "string",
      "description": ""
     },
     "timingDateTime": {
      "type": "string",
      "description": ""
     },
     "timingReference": {
      "type": "object",
      "allOf": [
       {
        "$ref": "#/components/schemas/Reference"
       }
      ],
      "description": ""
     },
     "timingTiming": {
      "type": "object",
      "allOf": [
       {
        "$ref": "#/components/schemas/Timing"
       }
      ],
      "description": ""
     },
     "type": {
      "type": "string",
      "description": "named-event | periodic | data-changed | data-added | data-modified | data-removed | data-accessed | data-access-ended"
     }
    },
    "required": [
     "id"
    ]
   },
   "UsageContext": {
    "description": "",
    "type": "object",
    "properties": {
     "code": {
      "type": "object",
      "allOf": [
       {
        "$ref": "#/components/schemas/Coding"
       }
      ],
      "description": "Type of context being specified"
     },
     "id": {
      "type": "string",
      "description": ""
     },
     "value": {
      "description": ""
     },
     "valueCodeableConcept": {
      "type": "object",
      "allOf": [
       {
        "$ref": "#/components/schemas/CodeableConcept"
       }
      ],
      "description": ""
     },
     "valueQuantity": {
      "type": "object",
      "allOf": [
       {
        "$ref": "#/components/schemas/Quantity"
       }
      ],
      "description": ""
     },
     "valueRange": {
      "type": "object",
      "allOf": [
       {
        "$ref": "#/components/schemas/Range"
       }
      ],
      "description": ""
     },
     "valueReference": {
      "type": "object",
      "allOf": [
       {
        "$ref": "#/components/schemas/Reference"
       }
      ],
      "description": ""
     }
    },
    "required": [
     "id"
    ]
   },
   "DataRequirement.codeFilter": {
    "description": "",
    "type": "object",
    "properties": {
     "code": {
      "type": "array",
      "items": {
       "$ref": "#/components/schemas/Coding"
      },
      "description": "What code is expected"
     },
     "id": {
      "type": "string",
      "description": ""
     },
     "path": {
      "type": "string",
      "description": "A code-valued attribute to filter on"
     },
     "searchParam": {
      "type": "string",
      "description": "A coded (token) parameter to search on"
     },
     "valueSet": {
      "type": "string",
      "description": "Valueset for the filter"
     }
    },
    "required": [
     "id"
    ]
   },
   "DataRequirement.dateFilter": {
    "description": "",
    "type": "object",
    "properties": {
     "id": {
      "type": "string",
      "description": ""
     },
     "path": {
      "type": "string",
      "description": "A date-valued attribute to filter on"
     },
     "searchParam": {
      "type": "string",
      "description": "A date valued parameter to search on"
     },
     "value": {
      "description": ""
     },
     "valueDateTime": {
      "type": "string",
      "description": ""
     },
     "valueDuration": {
      "type": "object",
      "allOf": [
       {
        "$ref": "#/components/schemas/Duration"
       }
      ],
      "description": ""
     },
     "valuePeriod": {
      "type": "object",
      "allOf": [
       {
        "$ref": "#/components/schemas/Period"
       }
      ],
      "description": ""
     }
    },
    "required": [
     "id"
    ]
   },
   "DataRequirement.sort": {
    "description": "",
    "type": "object",
    "properties": {
     "direction": {
      "type": "string",
      "description": "ascending | descending"
     },
     "id": {
      "type": "string",
      "description": ""
     },
     "path": {
      "type": "string",
      "description": "The name of the attribute to perform the sort"
     }
    },
    "required": [
     "id"
    ]
   },
   "Dosage.doseAndRate": {
    "description": "",
    "type": "object",
    "properties": {
     "dose": {
      "description": ""
     },
     "doseQuantity": {
      "type": "object",
      "allOf": [
       {
        "$ref": "#/components/schemas/Quantity"
       }
      ],
      "description": ""
     },
     "doseRange": {
      "type": "object",
      "allOf": [
       {
        "$ref": "#/components/schemas/Range"
       }
      ],
      "description": ""
     },
     "id": {
      "type": "string",
      "description": ""
     },
     "rate": {
      "description": ""
     },
     "rateQuantity": {
      "type": "object",
      "allOf": [
       {
        "$ref": "#/components/schemas/Quantity"
       }
      ],
      "description": ""
     },
     "rateRange": {
      "type": "object",
      "allOf": [
       {
        "$ref": "#/components/schemas/Range"
       }
      ],
      "description": ""
     },
     "rateRatio": {
      "type": "object",
      "allOf": [
       {
        "$ref": "#/components/schemas/Ratio"
       }
      ],
      "description": ""
     },
     "type": {
      "type": "object",
      "allOf": [
       {
        "$ref": "#/components/schemas/CodeableConcept"
       }
      ],
      "description": "The kind of dose or rate specified"
     }
    },
    "required": [
     "id"
    ]
   },
   "Timing.repeat": {
    "description": "",
    "type": "object",
    "properties": {
     "bounds": {
      "description": ""
     },
     "boundsDuration": {
      "type": "object",
      "allOf": [
       {
        "$ref": "#/components/schemas/Duration"
       }
      ],
      "description": ""
     },
     "boundsPeriod": {
      "type": "object",
      "allOf": [
       {
        "$ref": "#/components/schemas/Period"
       }
      ],
      "description": ""
     },
     "boundsRange": {
      "type": "object",
      "allOf": [
       {
        "$ref": "#/components/schemas/Range"
       }
      ],
      "description": ""
     },
     "count": {
      "type": "number",
      "description": "Number of times to repeat"
     },
     "countMax": {
      "type": "number",
      "description": "Maximum number of times to repeat"
     },
     "dayOfWeek": {
      "type": "string",
      "description": "mon | tue | wed | thu | fri | sat | sun"
     },
     "duration": {
      "type": "number",
      "description": "How long when it happens"
     },
     "durationMax": {
      "type": "number",
      "description": "How long when it happens (Max)"
     },
     "durationUnit": {
      "type": "string",
      "description": "s | min | h | d | wk | mo | a - unit of time (UCUM)"
     },
     "frequency": {
      "type": "number",
      "description": "Event occurs frequency times per period"
     },
     "frequencyMax": {
      "type": "number",
      "description": "Event occurs up to frequencyMax times per period"
     },
     "id": {
      "type": "string",
      "description": ""
     },
     "offset": {
      "type": "number",
      "description": "Minutes from event (before or after)"
     },
     "period": {
      "type": "number",
      "description": "Event occurs frequency times per period"
     },
     "periodMax": {
      "type": "number",
      "description": "Upper limit of period (3-4 hours)"
     },
     "periodUnit": {
      "type": "string",
      "description": "s | min | h | d | wk | mo | a - unit of time (UCUM)"
     },
     "timeOfDay": {
      "type": "string",
      "description": "Time of day for action"
     },
     "when": {
      "type": "string",
      "description": "Code for time period of occurrence"
     }
    },
    "required": [
     "id"
    ]
   }
  }
 },
 "paths": {
  "/DocumentReference": {
   "post": {
    "tags": [
     "DocumentReference"
    ],
    "responses": {
     "200": {
      "description": "Success",
      "content": {}
     }
    },
    "requestBody": {
     "content": {
      "application/fhir+json": {
       "schema": {
        "$ref": "#/components/schemas/DocumentReference"
       },
       "examples": {
        "documentreference-example.json": {
         "value": {
          "resourceType": "DocumentReference",
          "id": "example",
          "text": {
           "status": "generated",
           "div": "<div xmlns=\"http://www.w3.org/1999/xhtml\"><p><b>Generated Narrative with Details</b></p><p><b>id</b>: example</p><p><b>contained</b>: </p><p><b>masterIdentifier</b>: urn:oid:1.3.6.1.4.1.21367.2005.3.7</p><p><b>identifier</b>: urn:oid:1.3.6.1.4.1.21367.2005.3.7.1234</p><p><b>status</b>: current</p><p><b>docStatus</b>: preliminary</p><p><b>type</b>: Outpatient Note <span>(Details : {LOINC code '34108-1' = 'Outpatient Note', given as 'Outpatient Note'})</span></p><p><b>category</b>: History and Physical <span>(Details : {http://ihe.net/xds/connectathon/classCodes code 'History and Physical' = 'History and Physical', given as 'History and Physical'})</span></p><p><b>subject</b>: <a>Patient/xcda</a></p><p><b>date</b>: 24/12/2005 9:43:41 AM</p><p><b>author</b>: </p><ul><li><a>Practitioner/xcda1</a></li><li>id: a2; Gerald Smitty </li></ul><p><b>authenticator</b>: <a>Organization/f001</a></p><p><b>custodian</b>: <a>Organization/f001</a></p><h3>RelatesTos</h3><table><tr><td>-</td><td><b>Code</b></td><td><b>Target</b></td></tr><tr><td>*</td><td>appends</td><td><a>DocumentReference/example</a></td></tr></table><p><b>description</b>: Physical</p><p><b>securityLabel</b>: very restricted <span>(Details : {http://terminology.hl7.org/CodeSystem/v3-Confidentiality code 'V' = 'very restricted', given as 'very restricted'})</span></p><h3>Contents</h3><table><tr><td>-</td><td><b>Attachment</b></td><td><b>Format</b></td></tr><tr><td>*</td><td/><td>History and Physical Specification (Details: urn:oid:1.3.6.1.4.1.19376.1.2.3 code urn:ihe:pcc:handp:2008 = 'urn:ihe:pcc:handp:2008', stated as 'History and Physical Specification')</td></tr></table><h3>Contexts</h3><table><tr><td>-</td><td><b>Encounter</b></td><td><b>Event</b></td><td><b>Period</b></td><td><b>FacilityType</b></td><td><b>PracticeSetting</b></td><td><b>SourcePatientInfo</b></td><td><b>Related</b></td></tr><tr><td>*</td><td><a>Encounter/xcda</a></td><td>Arm <span>(Details : {http://ihe.net/xds/connectathon/eventCodes code 'T-D8200' = 'T-D8200', given as 'Arm'})</span></td><td>23/12/2004 8:00:00 AM --&gt; 23/12/2004 8:01:00 AM</td><td>Outpatient <span>(Details : {http://www.ihe.net/xds/connectathon/healthcareFacilityTypeCodes code 'Outpatient' = 'Outpatient', given as 'Outpatient'})</span></td><td>General Medicine <span>(Details : {http://www.ihe.net/xds/connectathon/practiceSettingCodes code 'General Medicine' = 'General Medicine', given as 'General Medicine'})</span></td><td><a>Patient/xcda</a></td><td><a>Patient/xcda</a></td></tr></table></div>"
          },
          "contained": [
           {
            "resourceType": "Practitioner",
            "id": "a2",
            "name": [
             {
              "family": "Smitty",
              "given": [
               "Gerald"
              ]
             }
            ]
           }
          ],
          "masterIdentifier": {
           "system": "urn:ietf:rfc:3986",
           "value": "urn:oid:1.3.6.1.4.1.21367.2005.3.7"
          },
          "identifier": [
           {
            "system": "urn:ietf:rfc:3986",
            "value": "urn:oid:1.3.6.1.4.1.21367.2005.3.7.1234"
           }
          ],
          "status": "current",
          "docStatus": "preliminary",
          "type": {
           "coding": [
            {
             "system": "http://loinc.org",
             "code": "34108-1",
             "display": "Outpatient Note"
            }
           ]
          },
          "category": [
           {
            "coding": [
             {
              "system": "http://ihe.net/xds/connectathon/classCodes",
              "code": "History and Physical",
              "display": "History and Physical"
             }
            ]
           }
          ],
          "subject": {
           "reference": "Patient/xcda"
          },
          "date": "2005-12-24T09:43:41+11:00",
          "author": [
           {
            "reference": "Practitioner/xcda1"
           },
           {
            "reference": "#a2"
           }
          ],
          "authenticator": {
           "reference": "Organization/f001"
          },
          "custodian": {
           "reference": "Organization/f001"
          },
          "relatesTo": [
           {
            "code": "appends",
            "target": {
             "reference": "DocumentReference/example"
            }
           }
          ],
          "description": "Physical",
          "securityLabel": [
           {
            "coding": [
             {
              "system": "http://terminology.hl7.org/CodeSystem/v3-Confidentiality",
              "code": "V",
              "display": "very restricted"
             }
            ]
           }
          ],
          "content": [
           {
            "attachment": {
             "contentType": "application/hl7-v3+xml",
             "language": "en-US",
             "url": "http://example.org/xds/mhd/Binary/07a6483f-732b-461e-86b6-edb665c45510",
             "size": 3654,
             "hash": "2jmj7l5rSw0yVb/vlWAYkK/YBwk=",
             "title": "Physical",
             "creation": "2005-12-24T09:35:00+11:00"
            },
            "format": {
             "system": "urn:oid:1.3.6.1.4.1.19376.1.2.3",
             "code": "urn:ihe:pcc:handp:2008",
             "display": "History and Physical Specification"
            }
           }
          ],
          "context": {
           "encounter": [
            {
             "reference": "Encounter/xcda"
            }
           ],
           "event": [
            {
             "coding": [
              {
               "system": "http://ihe.net/xds/connectathon/eventCodes",
               "code": "T-D8200",
               "display": "Arm"
              }
             ]
            }
           ],
           "period": {
            "start": "2004-12-23T08:00:00+11:00",
            "end": "2004-12-23T08:01:00+11:00"
           },
           "facilityType": {
            "coding": [
             {
              "system": "http://www.ihe.net/xds/connectathon/healthcareFacilityTypeCodes",
              "code": "Outpatient",
              "display": "Outpatient"
             }
            ]
           },
           "practiceSetting": {
            "coding": [
             {
              "system": "http://www.ihe.net/xds/connectathon/practiceSettingCodes",
              "code": "General Medicine",
              "display": "General Medicine"
             }
            ]
           },
           "sourcePatientInfo": {
            "reference": "Patient/xcda"
           },
           "related": [
            {
             "reference": "Patient/xcda",
             "identifier": {
              "system": "urn:ietf:rfc:3986",
              "value": "urn:oid:1.3.6.1.4.1.21367.2005.3.7.2345"
             }
            }
           ]
          },
          "meta": {
           "tag": [
            {
             "system": "http://terminology.hl7.org/CodeSystem/v3-ActReason",
             "code": "HTEST",
             "display": "test health data"
            }
           ]
          }
         }
        }
       }
      }
     }
    }
   },
   "get": {
    "tags": [
     "DocumentReference"
    ],
    "parameters": [
     {
      "name": "authenticator",
      "in": "query",
      "schema": {
       "type": "string"
      },
      "description": "Who/what authenticated the document"
     },
     {
      "name": "author",
      "in": "query",
      "schema": {
       "type": "string"
      },
      "description": "Who created"
     },
     {
      "name": "category",
      "in": "query",
      "schema": {
       "type": "string"
      },
      "description": "product-problem | product-quality | product-use-error | wrong-dose | incorrect-prescribing-information | wrong-technique | wrong-route-of-administration | wrong-rate | wrong-duration | wrong-time | expired-drug | medical-device-use-error | problem-different-manufacturer | unsafe-physical-environment"
     },
     {
      "name": "contenttype",
      "in": "query",
      "schema": {
       "type": "string"
      },
      "description": "Mime type of the content, with charset etc."
     },
     {
      "name": "custodian",
      "in": "query",
      "schema": {
       "type": "string"
      },
      "description": "Organization which maintains the document"
     },
     {
      "name": "date",
      "in": "query",
      "schema": {
       "type": "string",
       "format": "date"
      },
      "description": "The activity definition publication date"
     },
     {
      "name": "description",
      "in": "query",
      "schema": {
       "type": "string"
      },
      "description": "The description of the activity definition"
     },
     {
      "name": "encounter",
      "in": "query",
      "schema": {
       "type": "string"
      },
      "description": "Encounter created as part of"
     },
     {
      "name": "event",
      "in": "query",
      "schema": {
       "type": "string"
      },
      "description": "Type of the event itself in relation to the subject"
     },
     {
      "name": "facility",
      "in": "query",
      "schema": {
       "type": "string"
      },
      "description": "Facility where the products or services have been or will be provided"
     },
     {
      "name": "format",
      "in": "query",
      "schema": {
       "type": "string"
      },
      "description": "formats supported (xml | json | ttl | mime type)"
     },
     {
      "name": "identifier",
      "in": "query",
      "schema": {
       "type": "string"
      },
      "description": "Account number"
     },
     {
      "name": "language",
      "in": "query",
      "schema": {
       "type": "string"
      },
      "description": "A language in which a designation is provided"
     },
     {
      "name": "location",
      "in": "query",
      "schema": {
       "type": "string"
      },
      "description": "Location where adverse event occurred"
     },
     {
      "name": "patient",
      "in": "query",
      "schema": {
       "type": "string"
      },
      "description": "The entity that caused the expenses"
     },
     {
      "name": "period",
      "in": "query",
      "schema": {
       "type": "string",
       "format": "date"
      },
      "description": "Transaction window"
     },
     {
      "name": "related",
      "in": "query",
      "schema": {
       "type": "string"
      },
      "description": "Related identifiers or resources"
     },
     {
      "name": "relatesto",
      "in": "query",
      "schema": {
       "type": "string"
      },
      "description": "Target of the relationship"
     },
     {
      "name": "relation",
      "in": "query",
      "schema": {
       "type": "string"
      },
      "description": "replaces | transforms | signs | appends"
     },
     {
      "name": "relationship",
      "in": "query",
      "schema": {
       "type": "string"
      },
      "description": "Combination of relation and relatesTo"
     },
     {
      "name": "security-label",
      "in": "query",
      "schema": {
       "type": "string"
      },
      "description": "Security Labels that define affected resources"
     },
     {
      "name": "setting",
      "in": "query",
      "schema": {
       "type": "string"
      },
      "description": "Additional details about where the content was created (e.g. clinical specialty)"
     },
     {
      "name": "status",
      "in": "query",
      "schema": {
       "type": "string"
      },
      "description": "active | inactive | entered-in-error | on-hold | unknown"
     },
     {
      "name": "subject",
      "in": "query",
      "schema": {
       "type": "string"
      },
      "description": "The entity that caused the expenses"
     },
     {
      "name": "type",
      "in": "query",
      "schema": {
       "type": "string"
      },
      "description": "E.g. patient, expense, depreciation"
     },
     {
      "name": "_format",
      "in": "query",
      "x-consoleDefault": "application/json",
      "schema": {
       "type": "string"
      },
      "description": ""
     }
    ],
    "responses": {
     "200": {
      "description": "Success",
      "content": {
       "application/fhir+json": {
        "schema": {
         "type": "array",
         "items": {
          "$ref": "#/components/schemas/DocumentReference"
         }
        }
       }
      }
     }
    }
   }
  },
  "/DocumentReference/{id}": {
   "parameters": [
    {
     "in": "path",
     "required": true,
     "name": "id",
     "schema": {
      "type": "string"
     }
    }
   ],
   "get": {
    "tags": [
     "DocumentReference"
    ],
    "parameters": [],
    "responses": {
     "200": {
      "description": "Success",
      "content": {
       "application/fhir+json": {
        "schema": {
         "$ref": "#/components/schemas/DocumentReference"
        }
       }
      }
     }
    }
   },
   "put": {
    "tags": [
     "DocumentReference"
    ],
    "responses": {
     "200": {
      "description": "Success",
      "content": {}
     }
    },
    "requestBody": {
     "content": {
      "application/fhir+json": {
       "schema": {
        "$ref": "#/components/schemas/DocumentReference"
       }
      }
     }
    }
   },
   "delete": {
    "tags": [
     "DocumentReference"
    ],
    "parameters": [],
    "responses": {
     "200": {
      "description": "Success",
      "content": {}
     }
    }
   }
  },
  "/DocumentReference/{id}/_history": {
   "get": {
    "tags": [
     "DocumentReference"
    ],
    "parameters": [
     {
      "name": "id",
      "in": "path",
      "required": true,
      "schema": {
       "type": "string"
      }
     },
     {
      "name": "_count",
      "in": "query",
      "schema": {
       "type": "string"
      }
     },
     {
      "name": "_since",
      "in": "query",
      "schema": {
       "type": "string"
      }
     }
    ],
    "responses": {
     "200": {
      "description": "Success",
      "content": {
       "application/fhir+json": {
        "schema": {
         "type": "array",
         "items": {
          "$ref": "#/components/schemas/DocumentReference"
         }
        }
       }
      }
     }
    }
   }
  },
  "/DocumentReference/{id}/_history/{vid}": {
   "get": {
    "tags": [
     "DocumentReference"
    ],
    "parameters": [
     {
      "name": "id",
      "in": "path",
      "required": true,
      "schema": {
       "type": "string"
      }
     },
     {
      "name": "vid",
      "in": "path",
      "required": true,
      "schema": {
       "type": "string"
      }
     }
    ],
    "responses": {
     "200": {
      "description": "Success",
      "content": {
       "application/fhir+json": {
        "schema": {
         "$ref": "#/components/schemas/DocumentReference"
        }
       }
      }
     }
    }
   }
  }
 },
 "tags": [
  {
   "name": "DocumentReference"
  }
 ]
}