{
 "info": {
  "description": "The definition of a plan for a series of actions, independent of any specific patient or context",
  "title": "FHIR R4 PlanDefinition Resource",
  "version": "r4"
 },
 "openapi": "3.0.1",
 "servers": [
  {
   "url": "/fhir/r4"
  }
 ],
 "components": {
  "schemas": {
   "PlanDefinition": {
    "description": "The definition of a plan for a series of actions, independent of any specific patient or context",
    "type": "object",
    "properties": {
     "action": {
      "type": "array",
      "items": {
       "$ref": "#/components/schemas/PlanDefinition.action"
      },
      "description": "Action defined by the plan"
     },
     "approvalDate": {
      "type": "string",
      "description": "When the plan definition was approved by publisher"
     },
     "author": {
      "type": "array",
      "items": {
       "$ref": "#/components/schemas/ContactDetail"
      },
      "description": "Who authored the content"
     },
     "contact": {
      "type": "array",
      "items": {
       "$ref": "#/components/schemas/ContactDetail"
      },
      "description": "Contact details for the publisher"
     },
     "contained": {
      "type": "array",
      "items": {
       "$ref": "#/components/schemas/Resource"
      },
      "description": "Contained, inline Resources"
     },
     "copyright": {
      "type": "string",
      "description": "Use and/or publishing restrictions"
     },
     "date": {
      "type": "string",
      "description": "Date last changed"
     },
     "description": {
      "type": "string",
      "description": "Natural language description of the plan definition"
     },
     "editor": {
      "type": "array",
      "items": {
       "$ref": "#/components/schemas/ContactDetail"
      },
      "description": "Who edited the content"
     },
     "effectivePeriod": {
      "type": "object",
      "allOf": [
       {
        "$ref": "#/components/schemas/Period"
       }
      ],
      "description": "When the plan definition is expected to be used"
     },
     "endorser": {
      "type": "array",
      "items": {
       "$ref": "#/components/schemas/ContactDetail"
      },
      "description": "Who endorsed the content"
     },
     "experimental": {
      "type": "boolean",
      "description": "For testing purposes, not real usage"
     },
     "goal": {
      "type": "array",
      "items": {
       "$ref": "#/components/schemas/PlanDefinition.goal"
      },
      "description": "What the plan is trying to accomplish"
     },
     "id": {
      "type": "string",
      "description": "Logical id of this artifact"
     },
     "identifier": {
      "type": "array",
      "items": {
       "$ref": "#/components/schemas/Identifier"
      },
      "description": "Additional identifier for the plan definition"
     },
     "implicitRules": {
      "type": "string",
      "description": "A set of rules under which this content was created"
     },
     "jurisdiction": {
      "type": "array",
      "items": {
       "$ref": "#/components/schemas/CodeableConcept"
      },
      "description": "Intended jurisdiction for plan definition (if applicable)"
     },
     "language": {
      "type": "string",
      "description": "Language of the resource content"
     },
     "lastReviewDate": {
      "type": "string",
      "description": "When the plan definition was last reviewed"
     },
     "library": {
      "type": "string",
      "description": "Logic used by the plan definition"
     },
     "meta": {
      "type": "object",
      "allOf": [
       {
        "$ref": "#/components/schemas/Meta"
       }
      ],
      "description": "Metadata about the resource"
     },
     "name": {
      "type": "string",
      "description": "Name for this plan definition (computer friendly)"
     },
     "publisher": {
      "type": "string",
      "description": "Name of the publisher (organization or individual)"
     },
     "purpose": {
      "type": "string",
      "description": "Why this plan definition is defined"
     },
     "relatedArtifact": {
      "type": "array",
      "items": {
       "$ref": "#/components/schemas/RelatedArtifact"
      },
      "description": "Additional documentation, citations"
     },
     "reviewer": {
      "type": "array",
      "items": {
       "$ref": "#/components/schemas/ContactDetail"
      },
      "description": "Who reviewed the content"
     },
     "status": {
      "type": "string",
      "description": "draft | active | retired | unknown"
     },
     "subject": {
      "description": ""
     },
     "subjectCodeableConcept": {
      "type": "object",
      "allOf": [
       {
        "$ref": "#/components/schemas/CodeableConcept"
       }
      ],
      "description": ""
     },
     "subjectReference": {
      "type": "object",
      "allOf": [
       {
        "$ref": "#/components/schemas/Reference"
       }
      ],
      "description": ""
     },
     "subtitle": {
      "type": "string",
      "description": "Subordinate title of the plan definition"
     },
     "text": {
      "type": "object",
      "allOf": [
       {
        "$ref": "#/components/schemas/Narrative"
       }
      ],
      "description": "Text summary of the resource, for human interpretation"
     },
     "title": {
      "type": "string",
      "description": "Name for this plan definition (human friendly)"
     },
     "topic": {
      "type": "array",
      "items": {
       "$ref": "#/components/schemas/CodeableConcept"
      },
      "description": "E.g. Education, Treatment, Assessment"
     },
     "type": {
      "type": "object",
      "allOf": [
       {
        "$ref": "#/components/schemas/CodeableConcept"
       }
      ],
      "description": "order-set | clinical-protocol | eca-rule | workflow-definition"
     },
     "url": {
      "type": "string",
      "description": "Canonical identifier for this plan definition, represented as a URI (globally unique)"
     },
     "usage": {
      "type": "string",
      "description": "Describes the clinical usage of the plan"
     },
     "useContext": {
      "type": "array",
      "items": {
       "$ref": "#/components/schemas/UsageContext"
      },
      "description": "The context that the content is intended to support"
     },
     "version": {
      "type": "string",
      "description": "Business version of the plan definition"
     }
    },
    "required": [
     "id"
    ]
   },
   "PlanDefinition.action": {
    "description": "",
    "type": "object",
    "properties": {
     "action": {
      "type": "array",
      "items": {
       "$ref": "#/components/schemas/PlanDefinition.action"
      },
      "description": "A sub-action"
     },
     "cardinalityBehavior": {
      "type": "string",
      "description": "single | multiple"
     },
     "code": {
      "type": "array",
      "items": {
       "$ref": "#/components/schemas/CodeableConcept"
      },
      "description": "Code representing the meaning of the action or sub-actions"
     },
     "condition": {
      "type": "array",
      "items": {
       "$ref": "#/components/schemas/PlanDefinition.action.condition"
      },
      "description": "Whether or not the action is applicable"
     },
     "definition": {
      "description": ""
     },
     "definitionCanonical": {
      "type": "string",
      "description": ""
     },
     "definitionUri": {
      "type": "string",
      "description": ""
     },
     "description": {
      "type": "string",
      "description": "Brief description of the action"
     },
     "documentation": {
      "type": "array",
      "items": {
       "$ref": "#/components/schemas/RelatedArtifact"
      },
      "description": "Supporting documentation for the intended performer of the action"
     },
     "dynamicValue": {
      "type": "array",
      "items": {
       "$ref": "#/components/schemas/PlanDefinition.action.dynamicValue"
      },
      "description": "Dynamic aspects of the definition"
     },
     "goalId": {
      "type": "string",
      "description": "What goals this action supports"
     },
     "groupingBehavior": {
      "type": "string",
      "description": "visual-group | logical-group | sentence-group"
     },
     "id": {
      "type": "string",
      "description": "Unique id for inter-element referencing"
     },
     "input": {
      "type": "array",
      "items": {
       "$ref": "#/components/schemas/DataRequirement"
      },
      "description": "Input data requirements"
     },
     "output": {
      "type": "array",
      "items": {
       "$ref": "#/components/schemas/DataRequirement"
      },
      "description": "Output data definition"
     },
     "participant": {
      "type": "array",
      "items": {
       "$ref": "#/components/schemas/PlanDefinition.action.participant"
      },
      "description": "Who should participate in the action"
     },
     "precheckBehavior": {
      "type": "string",
      "description": "yes | no"
     },
     "prefix": {
      "type": "string",
      "description": "User-visible prefix for the action (e.g. 1. or A.)"
     },
     "priority": {
      "type": "string",
      "description": "routine | urgent | asap | stat"
     },
     "reason": {
      "type": "array",
      "items": {
       "$ref": "#/components/schemas/CodeableConcept"
      },
      "description": "Why the action should be performed"
     },
     "relatedAction": {
      "type": "array",
      "items": {
       "$ref": "#/components/schemas/PlanDefinition.action.relatedAction"
      },
      "description": "Relationship to another action"
     },
     "requiredBehavior": {
      "type": "string",
      "description": "must | could | must-unless-documented"
     },
     "selectionBehavior": {
      "type": "string",
      "description": "any | all | all-or-none | exactly-one | at-most-one | one-or-more"
     },
     "subject": {
      "description": ""
     },
     "subjectCodeableConcept": {
      "type": "object",
      "allOf": [
       {
        "$ref": "#/components/schemas/CodeableConcept"
       }
      ],
      "description": ""
     },
     "subjectReference": {
      "type": "object",
      "allOf": [
       {
        "$ref": "#/components/schemas/Reference"
       }
      ],
      "description": ""
     },
     "textEquivalent": {
      "type": "string",
      "description": "Static text equivalent of the action, used if the dynamic aspects cannot be interpreted by the receiving system"
     },
     "timing": {
      "description": ""
     },
     "timingAge": {
      "type": "object",
      "allOf": [
       {
        "$ref": "#/components/schemas/Age"
       }
      ],
      "description": ""
     },
     "timingDateTime": {
      "type": "string",
      "description": ""
     },
     "timingDuration": {
      "type": "object",
      "allOf": [
       {
        "$ref": "#/components/schemas/Duration"
       }
      ],
      "description": ""
     },
     "timingPeriod": {
      "type": "object",
      "allOf": [
       {
        "$ref": "#/components/schemas/Period"
       }
      ],
      "description": ""
     },
     "timingRange": {
      "type": "object",
      "allOf": [
       {
        "$ref": "#/components/schemas/Range"
       }
      ],
      "description": ""
     },
     "timingTiming": {
      "type": "object",
      "allOf": [
       {
        "$ref": "#/components/schemas/Timing"
       }
      ],
      "description": ""
     },
     "title": {
      "type": "string",
      "description": "User-visible title"
     },
     "transform": {
      "type": "string",
      "description": "Transform to apply the template"
     },
     "trigger": {
      "type": "array",
      "items": {
       "$ref": "#/components/schemas/TriggerDefinition"
      },
      "description": "When the action should be triggered"
     },
     "type": {
      "type": "object",
      "allOf": [
       {
        "$ref": "#/components/schemas/CodeableConcept"
       }
      ],
      "description": "create | update | remove | fire-event"
     }
    },
    "required": [
     "id"
    ]
   },
   "PlanDefinition.action.condition": {
    "description": "",
    "type": "object",
    "properties": {
     "expression": {
      "type": "object",
      "allOf": [
       {
        "$ref": "#/components/schemas/Expression"
       }
      ],
      "description": "Boolean-valued expression"
     },
     "id": {
      "type": "string",
      "description": "Unique id for inter-element referencing"
     },
     "kind": {
      "type": "string",
      "description": "applicability | start | stop"
     }
    },
    "required": [
     "id"
    ]
   },
   "PlanDefinition.action.dynamicValue": {
    "description": "",
    "type": "object",
    "properties": {
     "expression": {
      "type": "object",
      "allOf": [
       {
        "$ref": "#/components/schemas/Expression"
       }
      ],
      "description": "An expression that provides the dynamic value for the customization"
     },
     "id": {
      "type": "string",
      "description": "Unique id for inter-element referencing"
     },
     "path": {
      "type": "string",
      "description": "The path to the element to be set dynamically"
     }
    },
    "required": [
     "id"
    ]
   },
   "PlanDefinition.action.participant": {
    "description": "",
    "type": "object",
    "properties": {
     "id": {
      "type": "string",
      "description": "Unique id for inter-element referencing"
     },
     "role": {
      "type": "object",
      "allOf": [
       {
        "$ref": "#/components/schemas/CodeableConcept"
       }
      ],
      "description": "E.g. Nurse, Surgeon, Parent"
     },
     "type": {
      "type": "string",
      "description": "patient | practitioner | related-person | device"
     }
    },
    "required": [
     "id"
    ]
   },
   "PlanDefinition.action.relatedAction": {
    "description": "",
    "type": "object",
    "properties": {
     "actionId": {
      "type": "string",
      "description": "What action is this related to"
     },
     "id": {
      "type": "string",
      "description": "Unique id for inter-element referencing"
     },
     "offset": {
      "description": ""
     },
     "offsetDuration": {
      "type": "object",
      "allOf": [
       {
        "$ref": "#/components/schemas/Duration"
       }
      ],
      "description": ""
     },
     "offsetRange": {
      "type": "object",
      "allOf": [
       {
        "$ref": "#/components/schemas/Range"
       }
      ],
      "description": ""
     },
     "relationship": {
      "type": "string",
      "description": "before-start | before | before-end | concurrent-with-start | concurrent | concurrent-with-end | after-start | after | after-end"
     }
    },
    "required": [
     "id"
    ]
   },
   "PlanDefinition.goal": {
    "description": "",
    "type": "object",
    "properties": {
     "addresses": {
      "type": "array",
      "items": {
       "$ref": "#/components/schemas/CodeableConcept"
      },
      "description": "What does the goal address"
     },
     "category": {
      "type": "object",
      "allOf": [
       {
        "$ref": "#/components/schemas/CodeableConcept"
       }
      ],
      "description": "E.g. Treatment, dietary, behavioral"
     },
     "description": {
      "type": "object",
      "allOf": [
       {
        "$ref": "#/components/schemas/CodeableConcept"
       }
      ],
      "description": "Code or text describing the goal"
     },
     "documentation": {
      "type": "array",
      "items": {
       "$ref": "#/components/schemas/RelatedArtifact"
      },
      "description": "Supporting documentation for the goal"
     },
     "id": {
      "type": "string",
      "description": "Unique id for inter-element referencing"
     },
     "priority": {
      "type": "object",
      "allOf": [
       {
        "$ref": "#/components/schemas/CodeableConcept"
       }
      ],
      "description": "high-priority | medium-priority | low-priority"
     },
     "start": {
      "type": "object",
      "allOf": [
       {
        "$ref": "#/components/schemas/CodeableConcept"
       }
      ],
      "description": "When goal pursuit begins"
     },
     "target": {
      "type": "array",
      "items": {
       "$ref": "#/components/schemas/PlanDefinition.goal.target"
      },
      "description": "Target outcome for the goal"
     }
    },
    "required": [
     "id"
    ]
   },
   "PlanDefinition.goal.target": {
    "description": "",
    "type": "object",
    "properties": {
     "detail": {
      "description": ""
     },
     "detailCodeableConcept": {
      "type": "object",
      "allOf": [
       {
        "$ref": "#/components/schemas/CodeableConcept"
       }
      ],
      "description": ""
     },
     "detailQuantity": {
      "type": "object",
      "allOf": [
       {
        "$ref": "#/components/schemas/Quantity"
       }
      ],
      "description": ""
     },
     "detailRange": {
      "type": "object",
      "allOf": [
       {
        "$ref": "#/components/schemas/Range"
       }
      ],
      "description": ""
     },
     "due": {
      "type": "object",
      "allOf": [
       {
        "$ref": "#/components/schemas/Duration"
       }
      ],
      "description": "Reach goal within"
     },
     "id": {
      "type": "string",
      "description": "Unique id for inter-element referencing"
     },
     "measure": {
      "type": "object",
      "allOf": [
       {
        "$ref": "#/components/schemas/CodeableConcept"
       }
      ],
      "description": "The parameter whose value is to be tracked"
     }
    },
    "required": [
     "id"
    ]
   },
   "ContactDetail": {
    "description": "",
    "type": "object",
    "properties": {
     "id": {
      "type": "string",
      "description": ""
     },
     "name": {
      "type": "string",
      "description": "Name of an individual to contact"
     },
     "telecom": {
      "type": "array",
      "items": {
       "$ref": "#/components/schemas/ContactPoint"
      },
      "description": "Contact details for individual or organization"
     }
    },
    "required": [
     "id"
    ]
   },
   "Resource": {
    "description": "Base Resource",
    "type": "object",
    "properties": {
     "id": {
      "type": "string",
      "description": "Logical id of this artifact"
     },
     "implicitRules": {
      "type": "string",
      "description": "A set of rules under which this content was created"
     },
     "language": {
      "type": "string",
      "description": "Language of the resource content"
     },
     "meta": {
      "type": "object",
      "allOf": [
       {
        "$ref": "#/components/schemas/Meta"
       }
      ],
      "description": "Metadata about the resource"
     }
    },
    "required": [
     "id"
    ]
   },
   "Period": {
    "description": "",
    "type": "object",
    "properties": {
     "end": {
      "type": "string",
      "description": "End time with inclusive boundary, if not ongoing"
     },
     "id": {
      "type": "string",
      "description": ""
     },
     "start": {
      "type": "string",
      "description": "Starting time with inclusive boundary"
     }
    },
    "required": [
     "id"
    ]
   },
   "Extension": {
    "description": "",
    "type": "object",
    "properties": {
     "id": {
      "type": "string",
      "description": ""
     },
     "url": {
      "type": "string",
      "description": "identifies the meaning of the extension"
     },
     "value": {
      "description": ""
     },
     "valueAddress": {
      "type": "object",
      "allOf": [
       {
        "$ref": "#/components/schemas/Address"
       }
      ],
      "description": ""
     },
     "valueAge": {
      "type": "object",
      "allOf": [
       {
        "$ref": "#/components/schemas/Age"
       }
      ],
      "description": ""
     },
     "valueAnnotation": {
      "type": "object",
      "allOf": [
       {
        "$ref": "#/components/schemas/Annotation"
       }
      ],
      "description": ""
     },
     "valueAttachment": {
      "type": "object",
      "allOf": [
       {
        "$ref": "#/components/schemas/Attachment"
       }
      ],
      "description": ""
     },
     "valueBase64Binary": {
      "type": "string",
      "description": ""
     },
     "valueBoolean": {
      "type": "boolean",
      "description": ""
     },
     "valueCanonical": {
      "type": "string",
      "description": ""
     },
     "valueCode": {
      "type": "string",
      "description": ""
     },
     "valueCodeableConcept": {
      "type": "object",
      "allOf": [
       {
        "$ref": "#/components/schemas/CodeableConcept"
       }
      ],
      "description": ""
     },
     "valueCoding": {
      "type": "object",
      "allOf": [
       {
        "$ref": "#/components/schemas/Coding"
       }
      ],
      "description": ""
     },
     "valueContactDetail": {
      "type": "object",
      "allOf": [
       {
        "$ref": "#/components/schemas/ContactDetail"
       }
      ],
      "description": ""
     },
     "valueContactPoint": {
      "type": "object",
      "allOf": [
       {
        "$ref": "#/components/schemas/ContactPoint"
       }
      ],
      "description": ""
     },
     "valueContributor": {
      "type": "object",
      "allOf": [
       {
        "$ref": "#/components/schemas/Contributor"
       }
      ],
      "description": ""
     },
     "valueCount": {
      "type": "object",
      "allOf": [
       {
        "$ref": "#/components/schemas/Count"
       }
      ],
      "description": ""
     },
     "valueDataRequirement": {
      "type": "object",
      "allOf": [
       {
        "$ref": "#/components/schemas/DataRequirement"
       }
      ],
      "description": ""
     },
     "valueDate": {
      "type": "string",
      "description": ""
     },
     "valueDateTime": {
      "type": "string",
      "description": ""
     },
     "valueDecimal": {
      "type": "number",
      "description": ""
     },
     "valueDistance": {
      "type": "object",
      "allOf": [
       {
        "$ref": "#/components/schemas/Distance"
       }
      ],
      "description": ""
     },
     "valueDosage": {
      "type": "object",
      "allOf": [
       {
        "$ref": "#/components/schemas/Dosage"
       }
      ],
      "description": ""
     },
     "valueDuration": {
      "type": "object",
      "allOf": [
       {
        "$ref": "#/components/schemas/Duration"
       }
      ],
      "description": ""
     },
     "valueExpression": {
      "type": "object",
      "allOf": [
       {
        "$ref": "#/components/schemas/Expression"
       }
      ],
      "description": ""
     },
     "valueHumanName": {
      "type": "object",
      "allOf": [
       {
        "$ref": "#/components/schemas/HumanName"
       }
      ],
      "description": ""
     },
     "valueId": {
      "type": "string",
      "description": ""
     },
     "valueIdentifier": {
      "type": "object",
      "allOf": [
       {
        "$ref": "#/components/schemas/Identifier"
       }
      ],
      "description": ""
     },
     "valueInstant": {
      "type": "string",
      "description": ""
     },
     "valueInteger": {
      "type": "number",
      "description": ""
     },
     "valueMarkdown": {
      "type": "string",
      "description": ""
     },
     "valueMeta": {
      "type": "object",
      "allOf": [
       {
        "$ref": "#/components/schemas/Meta"
       }
      ],
      "description": ""
     },
     "valueMoney": {
      "type": "object",
      "allOf": [
       {
        "$ref": "#/components/schemas/Money"
       }
      ],
      "description": ""
     },
     "valueOid": {
      "type": "string",
      "description": ""
     },
     "valueParameterDefinition": {
      "type": "object",
      "allOf": [
       {
        "$ref": "#/components/schemas/ParameterDefinition"
       }
      ],
      "description": ""
     },
     "valuePeriod": {
      "type": "object",
      "allOf": [
       {
        "$ref": "#/components/schemas/Period"
       }
      ],
      "description": ""
     },
     "valuePositiveInt": {
      "type": "number",
      "description": ""
     },
     "valueQuantity": {
      "type": "object",
      "allOf": [
       {
        "$ref": "#/components/schemas/Quantity"
       }
      ],
      "description": ""
     },
     "valueRange": {
      "type": "object",
      "allOf": [
       {
        "$ref": "#/components/schemas/Range"
       }
      ],
      "description": ""
     },
     "valueRatio": {
      "type": "object",
      "allOf": [
       {
        "$ref": "#/components/schemas/Ratio"
       }
      ],
      "description": ""
     },
     "valueReference": {
      "type": "object",
      "allOf": [
       {
        "$ref": "#/components/schemas/Reference"
       }
      ],
      "description": ""
     },
     "valueRelatedArtifact": {
      "type": "object",
      "allOf": [
       {
        "$ref": "#/components/schemas/RelatedArtifact"
       }
      ],
      "description": ""
     },
     "valueSampledData": {
      "type": "object",
      "allOf": [
       {
        "$ref": "#/components/schemas/SampledData"
       }
      ],
      "description": ""
     },
     "valueSignature": {
      "type": "object",
      "allOf": [
       {
        "$ref": "#/components/schemas/Signature"
       }
      ],
      "description": ""
     },
     "valueString": {
      "type": "string",
      "description": ""
     },
     "valueTime": {
      "type": "string",
      "description": ""
     },
     "valueTiming": {
      "type": "object",
      "allOf": [
       {
        "$ref": "#/components/schemas/Timing"
       }
      ],
      "description": ""
     },
     "valueTriggerDefinition": {
      "type": "object",
      "allOf": [
       {
        "$ref": "#/components/schemas/TriggerDefinition"
       }
      ],
      "description": ""
     },
     "valueUnsignedInt": {
      "type": "number",
      "description": ""
     },
     "valueUri": {
      "type": "string",
      "description": ""
     },
     "valueUrl": {
      "type": "string",
      "description": ""
     },
     "valueUsageContext": {
      "type": "object",
      "allOf": [
       {
        "$ref": "#/components/schemas/UsageContext"
       }
      ],
      "description": ""
     },
     "valueUuid": {
      "type": "string",
      "description": ""
     }
    },
    "required": [
     "id"
    ]
   },
   "Identifier": {
    "description": "",
    "type": "object",
    "properties": {
     "assigner": {
      "type": "string",
      "description": "Organization that issued id (may be just text)"
     },
     "id": {
      "type": "string",
      "description": ""
     },
     "period": {
      "type": "object",
      "allOf": [
       {
        "$ref": "#/components/schemas/Period"
       }
      ],
      "description": "Time period when id is/was valid for use"
     },
     "system": {
      "type": "string",
      "description": "The namespace for the identifier value"
     },
     "type": {
      "type": "object",
      "allOf": [
       {
        "$ref": "#/components/schemas/CodeableConcept"
       }
      ],
      "description": "Description of identifier"
     },
     "use": {
      "type": "string",
      "description": "usual | official | temp | secondary | old (If known)"
     },
     "value": {
      "type": "string",
      "description": "The value that is unique"
     }
    },
    "required": [
     "id"
    ]
   },
   "CodeableConcept": {
    "description": "",
    "type": "object",
    "properties": {
     "coding": {
      "type": "array",
      "items": {
       "$ref": "#/components/schemas/Coding"
      },
      "description": "Code defined by a terminology system"
     },
     "id": {
      "type": "string",
      "description": ""
     },
     "text": {
      "type": "string",
      "description": "Plain text representation of the concept"
     }
    },
    "required": [
     "id"
    ]
   },
   "Meta": {
    "description": "",
    "type": "object",
    "properties": {
     "id": {
      "type": "string",
      "description": ""
     },
     "lastUpdated": {
      "type": "string",
      "description": "When the resource version last changed"
     },
     "profile": {
      "type": "string",
      "description": "Profiles this resource claims to conform to"
     },
     "security": {
      "type": "array",
      "items": {
       "$ref": "#/components/schemas/Coding"
      },
      "description": "Security Labels applied to this resource"
     },
     "source": {
      "type": "string",
      "description": "Identifies where the resource comes from"
     },
     "tag": {
      "type": "array",
      "items": {
       "$ref": "#/components/schemas/Coding"
      },
      "description": "Tags applied to this resource"
     },
     "versionId": {
      "type": "string",
      "description": "Version specific identifier"
     }
    },
    "required": [
     "id"
    ]
   },
   "RelatedArtifact": {
    "description": "",
    "type": "object",
    "properties": {
     "citation": {
      "type": "string",
      "description": "Bibliographic citation for the artifact"
     },
     "display": {
      "type": "string",
      "description": "Brief description of the related artifact"
     },
     "document": {
      "type": "object",
      "allOf": [
       {
        "$ref": "#/components/schemas/Attachment"
       }
      ],
      "description": "What document is being referenced"
     },
     "id": {
      "type": "string",
      "description": ""
     },
     "label": {
      "type": "string",
      "description": "Short label"
     },
     "resource": {
      "type": "string",
      "description": "What resource is being referenced"
     },
     "type": {
      "type": "string",
      "description": "documentation | justification | citation | predecessor | successor | derived-from | depends-on | composed-of"
     },
     "url": {
      "type": "string",
      "description": "Where the artifact can be accessed"
     }
    },
    "required": [
     "id"
    ]
   },
   "Reference": {
    "description": "",
    "type": "object",
    "properties": {
     "display": {
      "type": "string",
      "description": "Text alternative for the resource"
     },
     "id": {
      "type": "string",
      "description": ""
     },
     "identifier": {
      "type": "object",
      "allOf": [
       {
        "$ref": "#/components/schemas/Identifier"
       }
      ],
      "description": "Logical reference, when literal reference is not known"
     },
     "reference": {
      "type": "string",
      "description": "Literal reference, Relative, internal or absolute URL"
     },
     "type": {
      "type": "string",
      "description": "Type the reference refers to (e.g. \"Patient\")"
     }
    },
    "required": [
     "id"
    ]
   },
   "Narrative": {
    "description": "",
    "type": "object",
    "properties": {
     "div": {
      "description": "Limited xhtml content"
     },
     "id": {
      "type": "string",
      "description": ""
     },
     "status": {
      "type": "string",
      "description": "generated | extensions | additional | empty"
     }
    },
    "required": [
     "id"
    ]
   },
   "UsageContext": {
    "description": "",
    "type": "object",
    "properties": {
     "code": {
      "type": "object",
      "allOf": [
       {
        "$ref": "#/components/schemas/Coding"
       }
      ],
      "description": "Type of context being specified"
     },
     "id": {
      "type": "string",
      "description": ""
     },
     "value": {
      "description": ""
     },
     "valueCodeableConcept": {
      "type": "object",
      "allOf": [
       {
        "$ref": "#/components/schemas/CodeableConcept"
       }
      ],
      "description": ""
     },
     "valueQuantity": {
      "type": "object",
      "allOf": [
       {
        "$ref": "#/components/schemas/Quantity"
       }
      ],
      "description": ""
     },
     "valueRange": {
      "type": "object",
      "allOf": [
       {
        "$ref": "#/components/schemas/Range"
       }
      ],
      "description": ""
     },
     "valueReference": {
      "type": "object",
      "allOf": [
       {
        "$ref": "#/components/schemas/Reference"
       }
      ],
      "description": ""
     }
    },
    "required": [
     "id"
    ]
   },
   "Coding": {
    "description": "",
    "type": "object",
    "properties": {
     "code": {
      "type": "string",
      "description": "Symbol in syntax defined by the system"
     },
     "display": {
      "type": "string",
      "description": "Representation defined by the system"
     },
     "id": {
      "type": "string",
      "description": ""
     },
     "system": {
      "type": "string",
      "description": "Identity of the terminology system"
     },
     "userSelected": {
      "type": "boolean",
      "description": "If this coding was chosen directly by the user"
     },
     "version": {
      "type": "string",
      "description": "Version of the system - if relevant"
     }
    },
    "required": [
     "id"
    ]
   },
   "DataRequirement": {
    "description": "",
    "type": "object",
    "properties": {
     "codeFilter": {
      "type": "array",
      "items": {
       "$ref": "#/components/schemas/DataRequirement.codeFilter"
      },
      "description": ""
     },
     "dateFilter": {
      "type": "array",
      "items": {
       "$ref": "#/components/schemas/DataRequirement.dateFilter"
      },
      "description": ""
     },
     "id": {
      "type": "string",
      "description": ""
     },
     "limit": {
      "type": "number",
      "description": "Number of results"
     },
     "mustSupport": {
      "type": "string",
      "description": "Indicates specific structure elements that are referenced by the knowledge module"
     },
     "profile": {
      "type": "string",
      "description": "The profile of the required data"
     },
     "sort": {
      "type": "array",
      "items": {
       "$ref": "#/components/schemas/DataRequirement.sort"
      },
      "description": ""
     },
     "subject": {
      "description": ""
     },
     "subjectCodeableConcept": {
      "type": "object",
      "allOf": [
       {
        "$ref": "#/components/schemas/CodeableConcept"
       }
      ],
      "description": ""
     },
     "subjectReference": {
      "type": "object",
      "allOf": [
       {
        "$ref": "#/components/schemas/Reference"
       }
      ],
      "description": ""
     },
     "type": {
      "type": "string",
      "description": "The type of the required data"
     }
    },
    "required": [
     "id"
    ]
   },
   "Age": {
    "description": "",
    "type": "object",
    "properties": {
     "code": {
      "type": "string",
      "description": ""
     },
     "comparator": {
      "type": "string",
      "description": ""
     },
     "id": {
      "type": "string",
      "description": ""
     },
     "system": {
      "type": "string",
      "description": ""
     },
     "unit": {
      "type": "string",
      "description": ""
     },
     "value": {
      "type": "number",
      "description": ""
     }
    },
    "required": [
     "id"
    ]
   },
   "Duration": {
    "description": "",
    "type": "object",
    "properties": {
     "code": {
      "type": "string",
      "description": ""
     },
     "comparator": {
      "type": "string",
      "description": ""
     },
     "id": {
      "type": "string",
      "description": ""
     },
     "system": {
      "type": "string",
      "description": ""
     },
     "unit": {
      "type": "string",
      "description": ""
     },
     "value": {
      "type": "number",
      "description": ""
     }
    },
    "required": [
     "id"
    ]
   },
   "Range": {
    "description": "",
    "type": "object",
    "properties": {
     "high": {
      "type": "object",
      "allOf": [
       {
        "$ref": "#/components/schemas/Quantity"
       }
      ],
      "description": "High limit"
     },
     "id": {
      "type": "string",
      "description": ""
     },
     "low": {
      "type": "object",
      "allOf": [
       {
        "$ref": "#/components/schemas/Quantity"
       }
      ],
      "description": "Low limit"
     }
    },
    "required": [
     "id"
    ]
   },
   "Timing": {
    "description": "",
    "type": "object",
    "properties": {
     "code": {
      "type": "object",
      "allOf": [
       {
        "$ref": "#/components/schemas/CodeableConcept"
       }
      ],
      "description": ""
     },
     "event": {
      "type": "string",
      "description": ""
     },
     "id": {
      "type": "string",
      "description": ""
     },
     "repeat": {
      "type": "object",
      "allOf": [
       {
        "$ref": "#/components/schemas/Timing.repeat"
       }
      ],
      "description": ""
     }
    },
    "required": [
     "id"
    ]
   },
   "TriggerDefinition": {
    "description": "",
    "type": "object",
    "properties": {
     "condition": {
      "type": "object",
      "allOf": [
       {
        "$ref": "#/components/schemas/Expression"
       }
      ],
      "description": "Whether the event triggers (boolean expression)"
     },
     "data": {
      "type": "array",
      "items": {
       "$ref": "#/components/schemas/DataRequirement"
      },
      "description": "Triggering data of the event (multiple = 'and')"
     },
     "id": {
      "type": "string",
      "description": ""
     },
     "name": {
      "type": "string",
      "description": "Name or URI that identifies the event"
     },
     "timing": {
      "description": ""
     },
     "timingDate": {
      "type": "string",
      "description": ""
     },
     "timingDateTime": {
      "type": "string",
      "description": ""
     },
     "timingReference": {
      "type": "object",
      "allOf": [
       {
        "$ref": "#/components/schemas/Reference"
       }
      ],
      "description": ""
     },
     "timingTiming": {
      "type": "object",
      "allOf": [
       {
        "$ref": "#/components/schemas/Timing"
       }
      ],
      "description": ""
     },
     "type": {
      "type": "string",
      "description": "named-event | periodic | data-changed | data-added | data-modified | data-removed | data-accessed | data-access-ended"
     }
    },
    "required": [
     "id"
    ]
   },
   "Expression": {
    "description": "",
    "type": "object",
    "properties": {
     "description": {
      "type": "string",
      "description": "Natural language description of the condition"
     },
     "expression": {
      "type": "string",
      "description": "Expression in specified language"
     },
     "id": {
      "type": "string",
      "description": ""
     },
     "language": {
      "type": "string",
      "description": "text/cql | text/fhirpath | application/x-fhir-query | etc."
     },
     "name": {
      "type": "string",
      "description": "Short name assigned to expression for reuse"
     },
     "reference": {
      "type": "string",
      "description": "Where the expression is found"
     }
    },
    "required": [
     "id"
    ]
   },
   "Quantity": {
    "description": "",
    "type": "object",
    "properties": {
     "code": {
      "type": "string",
      "description": "Coded form of the unit"
     },
     "comparator": {
      "type": "string",
      "description": "< | <= | >= | > - how to understand the value"
     },
     "id": {
      "type": "string",
      "description": "Unique id for inter-element referencing"
     },
     "system": {
      "type": "string",
      "description": "System that defines coded unit form"
     },
     "unit": {
      "type": "string",
      "description": "Unit representation"
     },
     "value": {
      "type": "number",
      "description": "Numerical value (with implicit precision)"
     }
    },
    "required": [
     "id"
    ]
   },
   "ContactPoint": {
    "description": "",
    "type": "object",
    "properties": {
     "id": {
      "type": "string",
      "description": ""
     },
     "period": {
      "type": "object",
      "allOf": [
       {
        "$ref": "#/components/schemas/Period"
       }
      ],
      "description": "Time period when the contact point was/is in use"
     },
     "rank": {
      "type": "number",
      "description": "Specify preferred order of use (1 = highest)"
     },
     "system": {
      "type": "string",
      "description": "phone | fax | email | pager | url | sms | other"
     },
     "use": {
      "type": "string",
      "description": "home | work | temp | old | mobile - purpose of this contact point"
     },
     "value": {
      "type": "string",
      "description": "The actual contact point details"
     }
    },
    "required": [
     "id"
    ]
   },
   "Address": {
    "description": "",
    "type": "object",
    "properties": {
     "city": {
      "type": "string",
      "description": "Name of city, town etc."
     },
     "country": {
      "type": "string",
      "description": "Country (e.g. can be ISO 3166 2 or 3 letter code)"
     },
     "district": {
      "type": "string",
      "description": "District name (aka county)"
     },
     "id": {
      "type": "string",
      "description": ""
     },
     "line": {
      "type": "string",
      "description": "Street name, number, direction & P.O. Box etc."
     },
     "period": {
      "type": "object",
      "allOf": [
       {
        "$ref": "#/components/schemas/Period"
       }
      ],
      "description": "Time period when address was/is in use"
     },
     "postalCode": {
      "type": "string",
      "description": "Postal code for area"
     },
     "state": {
      "type": "string",
      "description": "Sub-unit of country (abbreviations ok)"
     },
     "text": {
      "type": "string",
      "description": "Text representation of the address"
     },
     "type": {
      "type": "string",
      "description": "postal | physical | both"
     },
     "use": {
      "type": "string",
      "description": "home | work | temp | old | billing - purpose of this address"
     }
    },
    "required": [
     "id"
    ]
   },
   "Annotation": {
    "description": "",
    "type": "object",
    "properties": {
     "author": {
      "description": ""
     },
     "authorReference": {
      "type": "object",
      "allOf": [
       {
        "$ref": "#/components/schemas/Reference"
       }
      ],
      "description": ""
     },
     "authorString": {
      "type": "string",
      "description": ""
     },
     "id": {
      "type": "string",
      "description": ""
     },
     "text": {
      "type": "string",
      "description": "The annotation  - text content (as markdown)"
     },
     "time": {
      "type": "string",
      "description": "When the annotation was made"
     }
    },
    "required": [
     "id"
    ]
   },
   "Attachment": {
    "description": "",
    "type": "object",
    "properties": {
     "contentType": {
      "type": "string",
      "description": "Mime type of the content, with charset etc."
     },
     "creation": {
      "type": "string",
      "description": "Date attachment was first created"
     },
     "data": {
      "type": "string",
      "description": "Data inline, base64ed"
     },
     "hash": {
      "type": "string",
      "description": "Hash of the data (sha-1, base64ed)"
     },
     "id": {
      "type": "string",
      "description": ""
     },
     "language": {
      "type": "string",
      "description": "Human language of the content (BCP-47)"
     },
     "size": {
      "type": "number",
      "description": "Number of bytes of content (if url provided)"
     },
     "title": {
      "type": "string",
      "description": "Label to display in place of the data"
     },
     "url": {
      "type": "string",
      "description": "Uri where the data can be found"
     }
    },
    "required": [
     "id"
    ]
   },
   "Contributor": {
    "description": "",
    "type": "object",
    "properties": {
     "contact": {
      "type": "array",
      "items": {
       "$ref": "#/components/schemas/ContactDetail"
      },
      "description": "Contact details of the contributor"
     },
     "id": {
      "type": "string",
      "description": ""
     },
     "name": {
      "type": "string",
      "description": "Who contributed the content"
     },
     "type": {
      "type": "string",
      "description": "author | editor | reviewer | endorser"
     }
    },
    "required": [
     "id"
    ]
   },
   "Count": {
    "description": "",
    "type": "object",
    "properties": {
     "code": {
      "type": "string",
      "description": ""
     },
     "comparator": {
      "type": "string",
      "description": ""
     },
     "id": {
      "type": "string",
      "description": ""
     },
     "system": {
      "type": "string",
      "description": ""
     },
     "unit": {
      "type": "string",
      "description": ""
     },
     "value": {
      "type": "number",
      "description": ""
     }
    },
    "required": [
     "id"
    ]
   },
   "Distance": {
    "description": "",
    "type": "object",
    "properties": {
     "code": {
      "type": "string",
      "description": ""
     },
     "comparator": {
      "type": "string",
      "description": ""
     },
     "id": {
      "type": "string",
      "description": ""
     },
     "system": {
      "type": "string",
      "description": ""
     },
     "unit": {
      "type": "string",
      "description": ""
     },
     "value": {
      "type": "number",
      "description": ""
     }
    },
    "required": [
     "id"
    ]
   },
   "Dosage": {
    "description": "",
    "type": "object",
    "properties": {
     "additionalInstruction": {
      "type": "array",
      "items": {
       "$ref": "#/components/schemas/CodeableConcept"
      },
      "description": ""
     },
     "asNeeded": {
      "description": ""
     },
     "asNeededBoolean": {
      "type": "boolean",
      "description": ""
     },
     "asNeededCodeableConcept": {
      "type": "object",
      "allOf": [
       {
        "$ref": "#/components/schemas/CodeableConcept"
       }
      ],
      "description": ""
     },
     "doseAndRate": {
      "type": "array",
      "items": {
       "$ref": "#/components/schemas/Dosage.doseAndRate"
      },
      "description": ""
     },
     "id": {
      "type": "string",
      "description": ""
     },
     "maxDosePerAdministration": {
      "type": "object",
      "allOf": [
       {
        "$ref": "#/components/schemas/Quantity"
       }
      ],
      "description": ""
     },
     "maxDosePerLifetime": {
      "type": "object",
      "allOf": [
       {
        "$ref": "#/components/schemas/Quantity"
       }
      ],
      "description": ""
     },
     "maxDosePerPeriod": {
      "type": "object",
      "allOf": [
       {
        "$ref": "#/components/schemas/Ratio"
       }
      ],
      "description": ""
     },
     "method": {
      "type": "object",
      "allOf": [
       {
        "$ref": "#/components/schemas/CodeableConcept"
       }
      ],
      "description": ""
     },
     "patientInstruction": {
      "type": "string",
      "description": ""
     },
     "route": {
      "type": "object",
      "allOf": [
       {
        "$ref": "#/components/schemas/CodeableConcept"
       }
      ],
      "description": ""
     },
     "sequence": {
      "type": "number",
      "description": ""
     },
     "site": {
      "type": "object",
      "allOf": [
       {
        "$ref": "#/components/schemas/CodeableConcept"
       }
      ],
      "description": ""
     },
     "text": {
      "type": "string",
      "description": ""
     },
     "timing": {
      "type": "object",
      "allOf": [
       {
        "$ref": "#/components/schemas/Timing"
       }
      ],
      "description": ""
     }
    },
    "required": [
     "id"
    ]
   },
   "HumanName": {
    "description": "",
    "type": "object",
    "properties": {
     "family": {
      "type": "string",
      "description": "Family name (often called 'Surname')"
     },
     "given": {
      "type": "string",
      "description": "Given names (not always 'first'). Includes middle names"
     },
     "id": {
      "type": "string",
      "description": ""
     },
     "period": {
      "type": "object",
      "allOf": [
       {
        "$ref": "#/components/schemas/Period"
       }
      ],
      "description": "Time period when name was/is in use"
     },
     "prefix": {
      "type": "string",
      "description": "Parts that come before the name"
     },
     "suffix": {
      "type": "string",
      "description": "Parts that come after the name"
     },
     "text": {
      "type": "string",
      "description": "Text representation of the full name"
     },
     "use": {
      "type": "string",
      "description": "usual | official | temp | nickname | anonymous | old | maiden"
     }
    },
    "required": [
     "id"
    ]
   },
   "Money": {
    "description": "",
    "type": "object",
    "properties": {
     "currency": {
      "type": "string",
      "description": "ISO 4217 Currency Code"
     },
     "id": {
      "type": "string",
      "description": ""
     },
     "value": {
      "type": "number",
      "description": "Numerical value (with implicit precision)"
     }
    },
    "required": [
     "id"
    ]
   },
   "ParameterDefinition": {
    "description": "",
    "type": "object",
    "properties": {
     "documentation": {
      "type": "string",
      "description": "A brief description of the parameter"
     },
     "id": {
      "type": "string",
      "description": ""
     },
     "max": {
      "type": "string",
      "description": "Maximum cardinality (a number of *)"
     },
     "min": {
      "type": "number",
      "description": "Minimum cardinality"
     },
     "name": {
      "type": "string",
      "description": "Name used to access the parameter value"
     },
     "profile": {
      "type": "string",
      "description": "What profile the value is expected to be"
     },
     "type": {
      "type": "string",
      "description": "What type of value"
     },
     "use": {
      "type": "string",
      "description": "in | out"
     }
    },
    "required": [
     "id"
    ]
   },
   "Ratio": {
    "description": "",
    "type": "object",
    "properties": {
     "denominator": {
      "type": "object",
      "allOf": [
       {
        "$ref": "#/components/schemas/Quantity"
       }
      ],
      "description": "Denominator value"
     },
     "id": {
      "type": "string",
      "description": ""
     },
     "numerator": {
      "type": "object",
      "allOf": [
       {
        "$ref": "#/components/schemas/Quantity"
       }
      ],
      "description": "Numerator value"
     }
    },
    "required": [
     "id"
    ]
   },
   "SampledData": {
    "description": "",
    "type": "object",
    "properties": {
     "data": {
      "type": "string",
      "description": "Decimal values with spaces, or \"E\" | \"U\" | \"L\""
     },
     "dimensions": {
      "type": "number",
      "description": "Number of sample points at each time point"
     },
     "factor": {
      "type": "number",
      "description": "Multiply data by this before adding to origin"
     },
     "id": {
      "type": "string",
      "description": ""
     },
     "lowerLimit": {
      "type": "number",
      "description": "Lower limit of detection"
     },
     "origin": {
      "type": "object",
      "allOf": [
       {
        "$ref": "#/components/schemas/Quantity"
       }
      ],
      "description": "Zero value and units"
     },
     "period": {
      "type": "number",
      "description": "Number of milliseconds between samples"
     },
     "upperLimit": {
      "type": "number",
      "description": "Upper limit of detection"
     }
    },
    "required": [
     "id"
    ]
   },
   "Signature": {
    "description": "",
    "type": "object",
    "properties": {
     "data": {
      "type": "string",
      "description": "The actual signature content (XML DigSig. JWS, picture, etc.)"
     },
     "id": {
      "type": "string",
      "description": ""
     },
     "onBehalfOf": {
      "type": "object",
      "allOf": [
       {
        "$ref": "#/components/schemas/Reference"
       }
      ],
      "description": "The party represented"
     },
     "sigFormat": {
      "type": "string",
      "description": "The technical format of the signature"
     },
     "targetFormat": {
      "type": "string",
      "description": "The technical format of the signed resources"
     },
     "type": {
      "type": "array",
      "items": {
       "$ref": "#/components/schemas/Coding"
      },
      "description": "Indication of the reason the entity signed the object(s)"
     },
     "when": {
      "type": "string",
      "description": "When the signature was created"
     },
     "who": {
      "type": "object",
      "allOf": [
       {
        "$ref": "#/components/schemas/Reference"
       }
      ],
      "description": "Who signed"
     }
    },
    "required": [
     "id"
    ]
   },
   "DataRequirement.codeFilter": {
    "description": "",
    "type": "object",
    "properties": {
     "code": {
      "type": "array",
      "items": {
       "$ref": "#/components/schemas/Coding"
      },
      "description": "What code is expected"
     },
     "id": {
      "type": "string",
      "description": ""
     },
     "path": {
      "type": "string",
      "description": "A code-valued attribute to filter on"
     },
     "searchParam": {
      "type": "string",
      "description": "A coded (token) parameter to search on"
     },
     "valueSet": {
      "type": "string",
      "description": "Valueset for the filter"
     }
    },
    "required": [
     "id"
    ]
   },
   "DataRequirement.dateFilter": {
    "description": "",
    "type": "object",
    "properties": {
     "id": {
      "type": "string",
      "description": ""
     },
     "path": {
      "type": "string",
      "description": "A date-valued attribute to filter on"
     },
     "searchParam": {
      "type": "string",
      "description": "A date valued parameter to search on"
     },
     "value": {
      "description": ""
     },
     "valueDateTime": {
      "type": "string",
      "description": ""
     },
     "valueDuration": {
      "type": "object",
      "allOf": [
       {
        "$ref": "#/components/schemas/Duration"
       }
      ],
      "description": ""
     },
     "valuePeriod": {
      "type": "object",
      "allOf": [
       {
        "$ref": "#/components/schemas/Period"
       }
      ],
      "description": ""
     }
    },
    "required": [
     "id"
    ]
   },
   "DataRequirement.sort": {
    "description": "",
    "type": "object",
    "properties": {
     "direction": {
      "type": "string",
      "description": "ascending | descending"
     },
     "id": {
      "type": "string",
      "description": ""
     },
     "path": {
      "type": "string",
      "description": "The name of the attribute to perform the sort"
     }
    },
    "required": [
     "id"
    ]
   },
   "Timing.repeat": {
    "description": "",
    "type": "object",
    "properties": {
     "bounds": {
      "description": ""
     },
     "boundsDuration": {
      "type": "object",
      "allOf": [
       {
        "$ref": "#/components/schemas/Duration"
       }
      ],
      "description": ""
     },
     "boundsPeriod": {
      "type": "object",
      "allOf": [
       {
        "$ref": "#/components/schemas/Period"
       }
      ],
      "description": ""
     },
     "boundsRange": {
      "type": "object",
      "allOf": [
       {
        "$ref": "#/components/schemas/Range"
       }
      ],
      "description": ""
     },
     "count": {
      "type": "number",
      "description": "Number of times to repeat"
     },
     "countMax": {
      "type": "number",
      "description": "Maximum number of times to repeat"
     },
     "dayOfWeek": {
      "type": "string",
      "description": "mon | tue | wed | thu | fri | sat | sun"
     },
     "duration": {
      "type": "number",
      "description": "How long when it happens"
     },
     "durationMax": {
      "type": "number",
      "description": "How long when it happens (Max)"
     },
     "durationUnit": {
      "type": "string",
      "description": "s | min | h | d | wk | mo | a - unit of time (UCUM)"
     },
     "frequency": {
      "type": "number",
      "description": "Event occurs frequency times per period"
     },
     "frequencyMax": {
      "type": "number",
      "description": "Event occurs up to frequencyMax times per period"
     },
     "id": {
      "type": "string",
      "description": ""
     },
     "offset": {
      "type": "number",
      "description": "Minutes from event (before or after)"
     },
     "period": {
      "type": "number",
      "description": "Event occurs frequency times per period"
     },
     "periodMax": {
      "type": "number",
      "description": "Upper limit of period (3-4 hours)"
     },
     "periodUnit": {
      "type": "string",
      "description": "s | min | h | d | wk | mo | a - unit of time (UCUM)"
     },
     "timeOfDay": {
      "type": "string",
      "description": "Time of day for action"
     },
     "when": {
      "type": "string",
      "description": "Code for time period of occurrence"
     }
    },
    "required": [
     "id"
    ]
   },
   "Dosage.doseAndRate": {
    "description": "",
    "type": "object",
    "properties": {
     "dose": {
      "description": ""
     },
     "doseQuantity": {
      "type": "object",
      "allOf": [
       {
        "$ref": "#/components/schemas/Quantity"
       }
      ],
      "description": ""
     },
     "doseRange": {
      "type": "object",
      "allOf": [
       {
        "$ref": "#/components/schemas/Range"
       }
      ],
      "description": ""
     },
     "id": {
      "type": "string",
      "description": ""
     },
     "rate": {
      "description": ""
     },
     "rateQuantity": {
      "type": "object",
      "allOf": [
       {
        "$ref": "#/components/schemas/Quantity"
       }
      ],
      "description": ""
     },
     "rateRange": {
      "type": "object",
      "allOf": [
       {
        "$ref": "#/components/schemas/Range"
       }
      ],
      "description": ""
     },
     "rateRatio": {
      "type": "object",
      "allOf": [
       {
        "$ref": "#/components/schemas/Ratio"
       }
      ],
      "description": ""
     },
     "type": {
      "type": "object",
      "allOf": [
       {
        "$ref": "#/components/schemas/CodeableConcept"
       }
      ],
      "description": "The kind of dose or rate specified"
     }
    },
    "required": [
     "id"
    ]
   }
  }
 },
 "paths": {
  "/PlanDefinition": {
   "post": {
    "tags": [
     "PlanDefinition"
    ],
    "responses": {
     "200": {
      "description": "Success",
      "content": {}
     }
    },
    "requestBody": {
     "content": {
      "application/fhir+json": {
       "schema": {
        "$ref": "#/components/schemas/PlanDefinition"
       },
       "examples": {
        "plandefinition-example-cardiology-os.json": {
         "value": {
          "resourceType": "PlanDefinition",
          "id": "example-cardiology-os",
          "text": {
           "status": "generated",
           "div": "<div xmlns=\"http://www.w3.org/1999/xhtml\"><p><b>Generated Narrative with Details</b></p><p><b>id</b>: example-cardiology-os</p><p><b>contained</b>: , , , , , , , , , , , , </p><p><b>url</b>: <b>http://va.gov/kas/orderset/B5-Cardiology-ChestPainCAD-OS</b></p><p><b>identifier</b>: bb7ccea6-9744-4743-854a-bcffd87191f6 (OFFICIAL), CLIN0004AG, KP-914</p><p><b>version</b>: 0.1</p><p><b>name</b>: ChestPainCoronaryArteryDiseaseOrderSetKNART</p><p><b>title</b>: Chest Pain (CP) - Coronary Artery Disease (CAD) Order Set KNART</p><p><b>type</b>: Order Set <span>(Details : {http://terminology.hl7.org/CodeSystem/plan-definition-type code 'order-set' = 'Order Set', given as 'Order Set'})</span></p><p><b>status</b>: active</p><p><b>date</b>: 29/08/2017</p><p><b>publisher</b>: Department of Veterans Affairs</p><p><b>description</b>: The Cardiology chest pain (CP) and coronary artery disease (CAD) group of KNARTs are     intended to assist primary care providers in the management of adult patients with stable     chest pain (with or without known CAD); aid in determining when a cardiology consultation is     appropriate; provide guidance for initial noninvasive diagnostic orders (stress testing) and     provide a structured documentation template for the process. Stable patients with cardiac     chest pain require risk stratification, office-based workup, initiation of disease-specific     medications, and subspecialty referral to a cardiologist.</p><p><b>useContext</b>: </p><p><b>usage</b>: The Cardiology chest pain (CP) and coronary artery disease (CAD) group of KNARTs are intended to assist primary care providers in the management of adult patients with stable chest pain (with or without known CAD); aid in determining when a cardiology consultation is appropriate; provide guidance for initial noninvasive diagnostic orders (stress testing) and provide a structured documentation template for the process. Stable patients with cardiac chest pain require risk stratification, office-based workup, initiation of disease-specific medications, and subspecialty referral to a cardiologist. This context excludes emergent patients (new/ongoing/unstable pattern CP). Included are those patients with stable CP with or without known CAD, to be considered for evaluation by cardiology.</p><p><b>copyright</b>: © Copyright Cognitive Medical Systems, Inc. 9444 Waples Street Suite 300 San Diego, CA 92121</p><p><b>author</b>: , , </p><p><b>relatedArtifact</b>: , , , , , , , , , , , </p><p><b>library</b>: <a>#cardiology-chestPain-logic</a></p><blockquote><p><b>action</b></p><h3>Actions</h3><table><tr><td>-</td></tr><tr><td>*</td></tr><tr><td>*</td></tr></table></blockquote></div>"
          },
          "contained": [
           {
            "resourceType": "Library",
            "id": "cardiology-chestPain-logic",
            "status": "active",
            "type": {
             "coding": [
              {
               "system": "http://terminology.hl7.org/CodeSystem/library-type",
               "code": "logic-library",
               "display": "Logic Library"
              }
             ]
            },
            "description": "Placeholder library"
           },
           {
            "resourceType": "ActivityDefinition",
            "id": "referralToCardiologyConsult",
            "status": "draft",
            "description": "Consider other consult modalities which might be available (e.g., e-consult or other rapidly iterative consult method. A simple consult is included here as the overarching clinical intent.",
            "kind": "ServiceRequest",
            "timingTiming": {
             "_event": [
              {
               "extension": [
                {
                 "url": "http://hl7.org/fhir/StructureDefinition/cqf-expression",
                 "valueExpression": {
                  "language": "text/cql",
                  "expression": "Now()"
                 }
                }
               ]
              }
             ]
            },
            "participant": [
             {
              "type": "practitioner"
             }
            ]
           },
           {
            "resourceType": "ActivityDefinition",
            "id": "metoprololTartrate25Prescription",
            "status": "draft",
            "kind": "MedicationRequest",
            "productReference": {
             "reference": "#metoprololTartrate25Medication"
            },
            "dosage": [
             {
              "text": "1 tablet oral 2 time daily",
              "timing": {
               "repeat": {
                "frequency": 2,
                "period": 1,
                "periodUnit": "d"
               }
              },
              "route": {
               "coding": [
                {
                 "code": "26643006",
                 "display": "Oral route (qualifier value)"
                }
               ],
               "text": "Oral route (qualifier value)"
              },
              "doseAndRate": [
               {
                "type": {
                 "coding": [
                  {
                   "system": "http://terminology.hl7.org/CodeSystem/dose-rate-type",
                   "code": "ordered",
                   "display": "Ordered"
                  }
                 ]
                },
                "doseQuantity": {
                 "value": 1,
                 "unit": "{tbl}"
                }
               }
              ]
             }
            ],
            "dynamicValue": [
             {
              "path": "medicationRequest.priority",
              "expression": {
               "language": "text/cql",
               "expression": "routine"
              }
             }
            ]
           },
           {
            "resourceType": "Medication",
            "id": "metoprololTartrate25Medication",
            "code": {
             "coding": [
              {
               "system": "http://www.nlm.nih.gov/research/umls/rxnorm",
               "code": "866426"
              }
             ],
             "text": "Metoprolol Tartrate 25 MG"
            },
            "form": {
             "coding": [
              {
               "system": "http://snomed.info/sct",
               "code": "385055001",
               "display": "Tablet dose form"
              }
             ],
             "text": "Tablet dose form"
            },
            "ingredient": [
             {
              "itemReference": {
               "reference": "#metoprololTartrate25Substance"
              },
              "strength": {
               "numerator": {
                "value": 25,
                "unit": "mg"
               },
               "denominator": {
                "value": 1,
                "unit": "{tbl}"
               }
              }
             }
            ]
           },
           {
            "resourceType": "Substance",
            "id": "metoprololTartrate25Substance",
            "code": {
             "coding": [
              {
               "system": "http://www.nlm.nih.gov/research/umls/rxnorm",
               "code": "6918"
              }
             ],
             "text": "Metoprolol"
            }
           },
           {
            "resourceType": "ActivityDefinition",
            "id": "metoprololTartrate50Prescription",
            "status": "draft",
            "kind": "MedicationRequest",
            "productReference": {
             "reference": "#metoprololTartrate50Medication"
            },
            "dosage": [
             {
              "text": "1 tablet oral 2 time daily",
              "timing": {
               "repeat": {
                "frequency": 2,
                "period": 1,
                "periodUnit": "d"
               }
              },
              "route": {
               "coding": [
                {
                 "code": "26643006",
                 "display": "Oral route (qualifier value)"
                }
               ],
               "text": "Oral route (qualifier value)"
              },
              "doseAndRate": [
               {
                "type": {
                 "coding": [
                  {
                   "system": "http://terminology.hl7.org/CodeSystem/dose-rate-type",
                   "code": "ordered",
                   "display": "Ordered"
                  }
                 ]
                },
                "doseQuantity": {
                 "value": 1,
                 "unit": "{tbl}"
                }
               }
              ]
             }
            ],
            "dynamicValue": [
             {
              "path": "medicationRequest.priority",
              "expression": {
               "language": "text/cql",
               "expression": "routine"
              }
             }
            ]
           },
           {
            "resourceType": "Medication",
            "id": "metoprololTartrate50Medication",
            "code": {
             "coding": [
              {
               "system": "http://www.nlm.nih.gov/research/umls/rxnorm",
               "code": "866435"
              }
             ],
             "text": "Metoprolol Tartrate 50 MG"
            },
            "form": {
             "coding": [
              {
               "system": "http://snomed.info/sct",
               "code": "385055001",
               "display": "Tablet dose form"
              }
             ],
             "text": "Tablet dose form"
            },
            "ingredient": [
             {
              "itemReference": {
               "reference": "#metoprololTartrate50Substance"
              },
              "strength": {
               "numerator": {
                "value": 50,
                "unit": "mg"
               },
               "denominator": {
                "value": 1,
                "unit": "{tbl}"
               }
              }
             }
            ]
           },
           {
            "resourceType": "Substance",
            "id": "metoprololTartrate50Substance",
            "code": {
             "coding": [
              {
               "system": "http://www.nlm.nih.gov/research/umls/rxnorm",
               "code": "6918"
              }
             ],
             "text": "Metoprolol"
            }
           },
           {
            "resourceType": "ActivityDefinition",
            "id": "nitroglycerinPrescription",
            "status": "draft",
            "kind": "MedicationRequest",
            "productReference": {
             "reference": "#nitroglycerinMedication"
            },
            "dosage": [
             {
              "text": "nitroglycerin 0.4 mg tablet sub-lingual every 5 minutes as needed for chest pain; maximum 3 tablets",
              "timing": {
               "repeat": {
                "frequency": 1,
                "period": 5,
                "periodUnit": "min"
               }
              },
              "doseAndRate": [
               {
                "type": {
                 "coding": [
                  {
                   "system": "http://terminology.hl7.org/CodeSystem/dose-rate-type",
                   "code": "ordered",
                   "display": "Ordered"
                  }
                 ]
                },
                "doseQuantity": {
                 "value": 1,
                 "unit": "{tbl}"
                }
               }
              ],
              "maxDosePerAdministration": {
               "value": 3,
               "unit": "{tbl}"
              }
             }
            ],
            "dynamicValue": [
             {
              "path": "medicationRequest.priority",
              "expression": {
               "language": "text/cql",
               "expression": "routine"
              }
             }
            ]
           },
           {
            "resourceType": "Medication",
            "id": "nitroglycerinMedication",
            "code": {
             "coding": [
              {
               "system": "http://www.nlm.nih.gov/research/umls/rxnorm",
               "code": "316365"
              }
             ],
             "text": "Nitroglycerin 0.4 MG"
            },
            "form": {
             "coding": [
              {
               "system": "http://snomed.info/sct",
               "code": "385055001",
               "display": "Tablet dose form"
              }
             ],
             "text": "Tablet dose form"
            },
            "ingredient": [
             {
              "itemReference": {
               "reference": "#nitroglycerinSubstance"
              },
              "strength": {
               "numerator": {
                "value": 0.4,
                "unit": "mg"
               },
               "denominator": {
                "value": 1,
                "unit": "{tbl}"
               }
              }
             }
            ]
           },
           {
            "resourceType": "Substance",
            "id": "nitroglycerinSubstance",
            "code": {
             "coding": [
              {
               "system": "http://www.nlm.nih.gov/research/umls/rxnorm",
               "code": "4917"
              }
             ],
             "text": "Nitroglycerin"
            }
           },
           {
            "resourceType": "Questionnaire",
            "id": "CollectReferralReason",
            "status": "draft",
            "item": [
             {
              "linkId": "1",
              "text": "Reason for Cardiology Consult",
              "type": "choice",
              "required": true,
              "repeats": true,
              "answerValueSet": "#CardiologyReferralReasonValues"
             }
            ]
           },
           {
            "resourceType": "Questionnaire",
            "id": "CardiologyConsultationGoal",
            "status": "draft",
            "item": [
             {
              "linkId": "2",
              "text": "Goal of cardiology consultation",
              "type": "string"
             }
            ]
           }
          ],
          "url": "http://va.gov/kas/orderset/B5-Cardiology-ChestPainCAD-OS",
          "identifier": [
           {
            "use": "official",
            "system": "urn:va.gov:kbs:knart:artifact:r1",
            "value": "bb7ccea6-9744-4743-854a-bcffd87191f6"
           },
           {
            "system": "urn:va.gov:kbs:contract:VA118-16-D-1008:to:VA-118-16-F-1008-0007",
            "value": "CLIN0004AG"
           },
           {
            "system": "urn:cognitivemedicine.com:lab:jira",
            "value": "KP-914"
           }
          ],
          "version": "0.1",
          "name": "ChestPainCoronaryArteryDiseaseOrderSetKNART",
          "title": "Chest Pain (CP) - Coronary Artery Disease (CAD) Order Set KNART",
          "type": {
           "coding": [
            {
             "system": "http://terminology.hl7.org/CodeSystem/plan-definition-type",
             "code": "order-set",
             "display": "Order Set"
            }
           ]
          },
          "status": "active",
          "date": "2017-08-29",
          "publisher": "Department of Veterans Affairs",
          "description": "The Cardiology chest pain (CP) and coronary artery disease (CAD) group of KNARTs are     intended to assist primary care providers in the management of adult patients with stable     chest pain (with or without known CAD); aid in determining when a cardiology consultation is     appropriate; provide guidance for initial noninvasive diagnostic orders (stress testing) and     provide a structured documentation template for the process. Stable patients with cardiac     chest pain require risk stratification, office-based workup, initiation of disease-specific     medications, and subspecialty referral to a cardiologist.",
          "useContext": [
           {
            "code": {
             "system": "http://terminology.hl7.org/CodeSystem/usage-context-type",
             "code": "focus"
            },
            "valueCodeableConcept": {
             "coding": [
              {
               "system": "http://snomed.info/sct",
               "code": "look up value",
               "display": "appropriate snomed condition"
              }
             ]
            }
           }
          ],
          "usage": "The Cardiology chest pain (CP) and coronary artery disease (CAD) group of KNARTs are intended to assist primary care providers in the management of adult patients with stable chest pain (with or without known CAD); aid in determining when a cardiology consultation is appropriate; provide guidance for initial noninvasive diagnostic orders (stress testing) and provide a structured documentation template for the process. Stable patients with cardiac chest pain require risk stratification, office-based workup, initiation of disease-specific medications, and subspecialty referral to a cardiologist. This context excludes emergent patients (new/ongoing/unstable pattern CP). Included are those patients with stable CP with or without known CAD, to be considered for evaluation by cardiology.",
          "copyright": "© Copyright Cognitive Medical Systems, Inc. 9444 Waples Street Suite 300 San Diego, CA 92121",
          "author": [
           {
            "name": "Bruce Bray MD"
           },
           {
            "name": "Scott Wall MD"
           },
           {
            "name": "Aiden Abidov MD, PhD"
           }
          ],
          "relatedArtifact": [
           {
            "type": "derived-from",
            "display": "Cardiology: Chest Pain (CP) / Coronary Artery Disease (CAD) Clinical Content White Paper",
            "url": "NEED-A-URL-HERE"
           },
           {
            "type": "justification",
            "display": "Outcome CVD (coronary death, myocardial infarction, coronary insufficiency, angina, ischemic stroke, hemorrhagic stroke, transient ischemic attack, peripheral artery disease, heart failure)",
            "citation": "Cardiovascular disease          (10-year risk) [Internet].: Framingham Heart Study; cited 2017]. Available from: https://www.framinghamheartstudy.org/risk-functions/cardiovascular-disease/10-year-risk.php.",
            "url": "https://www.framinghamheartstudy.org/risk-functions/cardiovascular-disease/10-year-risk.php"
           },
           {
            "type": "justification",
            "display": "General cardiovascular risk profile for use in primary care: the Framingham Heart Study",
            "citation": "Cardiovascular disease          (10-year risk) [Internet].: Framingham Heart Study; cited 2017]. Available from: https://www.framinghamheartstudy.org/risk-functions/cardiovascular-disease/10-year-risk.php.",
            "url": "https://www.framinghamheartstudy.org/risk-functions/cardiovascular-disease/10-year-risk.php"
           },
           {
            "type": "justification",
            "display": "2014 ACC/AHA/AATS/PCNA/SCAI/STS focused update of the guideline for the diagnosis and management of patients with stable ischemic heart disease: a report of the American College of Cardiology/American Heart Association Task Force on Practice Guidelines, and the American Association for Thoracic Surgery, Preventive Cardiovascular Nurses Association, Society for Cardiovascular Angiography and Interventions, and Society of Thoracic Surgeons",
            "citation": "Fihn SD, Blankenship JC, Alexander KP, Bittl JA, Byrne JG, Fletcher BJ, et al. 2014 ACC/AHA/AATS/PCNA/SCAI/STS focused update of the guideline for the diagnosis and management of patients with stable ischemic heart disease: A report of the american college of cardiology/american heart association task force on practice guidelines, and the american association for thoracic surgery, preventive cardiovascular nurses association, society for cardiovascular angiography and interventions, and society of thoracic surgeons. J Thorac Cardiovasc Surg. 2015 March 01;149(3):5.",
            "url": "NEED-A-URL-HERE"
           },
           {
            "type": "justification",
            "display": "ACC/AHA 2002 guideline update for exercise testing: summary article: A report of the American college of cardiology/American heart association task force on practice guidelines (committee to update the 1997 exercise testing guidelines)",
            "citation": "Gibbons RJ, Balady GJ, Bricker JT, Chaitman BR, Fletcher GF, Froelicher VF, et al. ACC/AHA 2002 guideline update for exercise testing: Summary article: A report of the american college of cardiology/american heart association task force on practice guidelines (committee to update the 1997 exercise testing guidelines). Circulation. 2002 October 01;106(14):1883-92.",
            "url": "NEED-A-URL-HERE"
           },
           {
            "type": "justification",
            "display": "LABEL: ASPIRIN 81 MG- aspirin tablet, coated",
            "citation": "Label: ASPIRIN 81 MG- aspirin tablet, coated [Internet].: National Library of Medicine; 2017. Available from: https://dailymed.nlm.nih.gov/dailymed/drugInfo.cfm?setid=b4064039-2345-4227-b83d-54dc13a838d3.",
            "url": "https://dailymed.nlm.nih.gov/dailymed/drugInfo.cfm?setid=b4064039-2345-4227-b83d-54dc13a838d3"
           },
           {
            "type": "justification",
            "display": "LABEL: CLOPIDOGREL- clopidogrel bisulfate tablet, film coated",
            "citation": "LABEL: CLOPIDOGREL- clopidogrel bisulfate tablet, film coated [Internet].: National Library of Medicine; 2017. Available from: https://dailymed.nlm.nih.gov/dailymed/drugInfo.cfm?setid=edae8df1-caf9-ff72-1304-5ae8b355f8e7.",
            "url": "https://dailymed.nlm.nih.gov/dailymed/drugInfo.cfm?setid=7fe85155-bc00-406b-b097-e8aece187a8a"
           },
           {
            "type": "justification",
            "display": "LABEL: LIPITOR- atorvastatin calcium tablet, film coated",
            "citation": "LABEL: LIPITOR- atorvastatin calcium tablet, film coated [Internet].: National Library of Medicine; 2017. Available from: https://dailymed.nlm.nih.gov/dailymed/drugInfo.cfm?setid=7fe85155-bc00-406b-b097-e8aece187a8a.",
            "url": "https://dailymed.nlm.nih.gov/dailymed/drugInfo.cfm?setid=7fe85155-bc00-406b-b097-e8aece187a8a"
           },
           {
            "type": "justification",
            "display": "LABEL: METOPROLOL SUCCINATE EXTENDED-RELEASE - metoprolol succinate tablet, film coated, extended release",
            "citation": "LABEL: LIPITOR- atorvastatin calcium tablet, film coated [Internet].: National Library of Medicine; 2017. Available from: https://dailymed.nlm.nih.gov/dailymed/drugInfo.cfm?setid=7fe85155-bc00-406b-b097-e8aece187a8a.",
            "url": "https://dailymed.nlm.nih.gov/dailymed/drugInfo.cfm?setid=2d948600-35d8-4490-983b-918bdce488c8"
           },
           {
            "type": "justification",
            "display": "LABEL: NITROGLYCERIN- nitroglycerin tablet",
            "citation": "LABEL: NITROGLYCERIN- nitroglycerin tablet [Internet].: National Library of Medicine; 2017. Available from: https://dailymed.nlm.nih.gov/dailymed/drugInfo.cfm?setid=67bf2a15-b115-47ac-ae28-ce2dafd6b5c9.",
            "url": "https://dailymed.nlm.nih.gov/dailymed/drugInfo.cfm?setid=67bf2a15-b115-47ac-ae28-ce2dafd6b5c9"
           },
           {
            "type": "justification",
            "display": "LABEL: SIMVASTATIN - simvastatin tablet",
            "citation": "LABEL: SIMVASTATIN - simvastatin tablet [Internet].: National Library of Medicine; 2017. Available from: https://dailymed.nlm.nih.gov/dailymed/drugInfo.cfm?setid=5c1c694c-4b08-469e-b538-08e69df06146.",
            "url": "https://dailymed.nlm.nih.gov/dailymed/drugInfo.cfm?setid=5c1c694c-4b08-469e-b538-08e69df06146"
           },
           {
            "type": "justification",
            "display": "Chest Pain Guideline Development Group. NICE guidance. Chest          pain of recent onset: assessment and diagnosis of recent onset chest pain or discomfort of suspected cardiac origin.",
            "citation": "Skinner JS, Smeeth L, Kendall JM, Adams PC, Timmis A, Chest Pain Guideline Development Group. NICE guidance. chest pain of recent onset: Assessment and diagnosis of recent onset chest pain or discomfort of suspected cardiac origin. Heart. 2010 June 01;96(12):974-8.",
            "url": "http://heart.bmj.com/content/96/12/974.long"
           }
          ],
          "library": [
           "#cardiology-chestPain-logic"
          ],
          "action": [
           {
            "action": [
             {
              "title": "Consults and Referrals",
              "groupingBehavior": "logical-group",
              "selectionBehavior": "any",
              "action": [
               {
                "textEquivalent": "Referral to cardiology to evaluate chest pain (routine)",
                "definitionCanonical": "#referralToCardiologyConsult",
                "dynamicValue": [
                 {
                  "path": "timing.event",
                  "expression": {
                   "language": "text/cql",
                   "expression": "Now()"
                  }
                 },
                 {
                  "path": "specialty",
                  "expression": {
                   "language": "text/cql",
                   "expression": "Code '261QM0850X' from CardiologyChestPainLogic.\"NUCC Provider Taxonomy\" display 'Adult Mental Health'"
                  }
                 },
                 {
                  "path": "occurrenceDateTime",
                  "expression": {
                   "language": "text/cql",
                   "expression": "CardiologyChestPainLogic.ServiceRequestFulfillmentTime"
                  }
                 },
                 {
                  "path": "subject",
                  "expression": {
                   "language": "text/cql",
                   "expression": "CardiologyChestPainLogic.Patient"
                  }
                 },
                 {
                  "path": "requester.agent",
                  "expression": {
                   "language": "text/cql",
                   "expression": "CardiologyChestPainLogic.Practitioner"
                  }
                 },
                 {
                  "path": "reasonCode",
                  "expression": {
                   "language": "text/cql",
                   "expression": "CardiologyChestPainLogic.CardiologyReferralReason"
                  }
                 },
                 {
                  "path": "reasonReference",
                  "expression": {
                   "language": "text/cql",
                   "expression": "CardiologyChestPainLogic.RiskAssessment"
                  }
                 }
                ]
               },
               {
                "title": "Reason for cardiology consultation",
                "definitionCanonical": "#CollectReferralReason"
               },
               {
                "title": "Goal of cardiology consultation",
                "definitionCanonical": "#CardiologyConsultationGoal"
               }
              ]
             },
             {
              "title": "Medications",
              "description": "Consider the following medications for stable patients to be initiated prior to the cardiology consultation.",
              "action": [
               {
                "groupingBehavior": "logical-group",
                "selectionBehavior": "at-most-one"
               },
               {
                "title": "Antianginal Therapy",
                "groupingBehavior": "logical-group",
                "selectionBehavior": "at-most-one",
                "action": [
                 {
                  "textEquivalent": "metoprolol tartrate 25 mg tablet 1 tablet oral 2 time daily",
                  "definitionCanonical": "#metoprololTartrate25Prescription",
                  "dynamicValue": [
                   {
                    "path": "status",
                    "expression": {
                     "language": "text/cql",
                     "expression": "'draft'"
                    }
                   },
                   {
                    "path": "patient",
                    "expression": {
                     "language": "text/cql",
                     "expression": "CardiologyChestPainLogic.Patient"
                    }
                   },
                   {
                    "path": "prescriber",
                    "expression": {
                     "language": "text/cql",
                     "expression": "CardiologyChestPainLogic.Practitioner"
                    }
                   }
                  ]
                 },
                 {
                  "textEquivalent": "metoprolol tartrate 50 mg tablet 1 tablet oral 2 time daily",
                  "definitionCanonical": "#metoprololTartrate50Prescription",
                  "dynamicValue": [
                   {
                    "path": "status",
                    "expression": {
                     "language": "text/cql",
                     "expression": "'draft'"
                    }
                   },
                   {
                    "path": "patient",
                    "expression": {
                     "language": "text/cql",
                     "expression": "CardiologyChestPainLogic.Patient"
                    }
                   },
                   {
                    "path": "prescriber",
                    "expression": {
                     "language": "text/cql",
                     "expression": "CardiologyChestPainLogic.Practitioner"
                    }
                   }
                  ]
                 },
                 {
                  "textEquivalent": "amlodipine 5  tablet 1 tablet oral  daily",
                  "definitionCanonical": "#amlodipinePrescription",
                  "dynamicValue": [
                   {
                    "path": "status",
                    "expression": {
                     "language": "text/cql",
                     "expression": "'draft'"
                    }
                   },
                   {
                    "path": "patient",
                    "expression": {
                     "language": "text/cql",
                     "expression": "CardiologyChestPainLogic.Patient"
                    }
                   },
                   {
                    "path": "prescriber",
                    "expression": {
                     "language": "text/cql",
                     "expression": "CardiologyChestPainLogic.Practitioner"
                    }
                   }
                  ]
                 }
                ]
               },
               {
                "title": "Nitroglycerin",
                "groupingBehavior": "logical-group",
                "selectionBehavior": "at-most-one",
                "action": [
                 {
                  "textEquivalent": "nitroglycerin 0.4 mg tablet sub-lingual every 5 minutes as needed for chest pain; maximum 3 tablets",
                  "definitionCanonical": "#nitroglycerinPrescription",
                  "dynamicValue": [
                   {
                    "path": "status",
                    "expression": {
                     "language": "text/cql",
                     "expression": "'draft'"
                    }
                   },
                   {
                    "path": "patient",
                    "expression": {
                     "language": "text/cql",
                     "expression": "CardiologyChestPainLogic.Patient"
                    }
                   },
                   {
                    "path": "prescriber",
                    "expression": {
                     "language": "text/cql",
                     "expression": "CardiologyChestPainLogic.Practitioner"
                    }
                   }
                  ]
                 }
                ]
               }
              ]
             }
            ]
           }
          ]
         }
        },
        "plandefinition-example-kdn5-simplified.json": {
         "value": {
          "resourceType": "PlanDefinition",
          "id": "KDN5",
          "text": {
           "status": "additional",
           "div": "<div xmlns=\"http://www.w3.org/1999/xhtml\">\n      <table style=\"width: 100%;\">\n        <tr>\n          <td>\n              <!-- link to NCCN image -->\n            <div style=\"width: 200px; height: 100px; vertical-align: top;\">National Comprehensive Cancer Network</div>\n          </td>\n          <td>\n            <h3>Chemotherapy Order Template</h3>\n            <h1>Kidney Cancer</h1>\n            <h2>Gemcitabine/CARBOplatin</h2>\n          </td>\n          <td style=\"text-align: right; vertical-align: top;\">KDN5</td>\n        </tr>\n      </table>\n      <table style=\"width: 100%; border-top: 1px solid; border-bottom: 1px solid;\">\n        <tr>\n          <td style=\"width: 33%; border-right: 1px solid; vertical-align: top\">\n            <h4>INDICATION:</h4>\n            <p>Metastatic or Relapsed – Collecting Duct/Medullary Subtypes</p>\n          </td>\n          <td style=\"width: 34%; border-right: 1px solid; vertical-align: top\">\n            <h4>REFERENCES:</h4>\n            <ol>\n              <li><a href=\"http://www.example.org/professionals/physician_gls/PDF/kidney.pdf\">NCCN Guidelines® for Kidney Cancer. V.3.2015.</a></li>\n              <li><a href=\"http://www.ncbi.nlm.nih.gov/pubmed?term=%22The+Journal+of+urology%22%5BJour%5D+AND+1698%5Bpage%5D+AND+2007%5Bpdat%5D+AND+Oudard+S%5Bauthor%5D\">Oudard S, et al. <em>J Urol</em>. 2007;177(5):1698-702.</a><sup>\n                  <a href=\"http://www.example.org/OrderTemplates/PDF/appendix_E.pdf\">a</a></sup>\n              </li>\n            </ol>\n          </td>\n          <td style=\"width: 33%; vertical-align: top\">\n            <h4>NCCN SUPPORTIVE CARE:</h4>\n            <ol>\n              <li>\n                <i>Emetic Risk:</i>\n                <table>\n                  <tr>\n                    <td>Day 1</td>\n                    <td>Moderate</td>\n                  </tr>\n                  <tr>\n                    <td>Day 8</td>\n                    <td>Low</td>\n                  </tr>\n                </table>\n              </li>\n              <li>\n                <i>Fever Neutropenia Risk:</i><br/>\n                Refer to <a href=\"http://www.example.org/professionals/physician_gls/PDF/myeloid_growth.pdf\">NCCN Guidelines for Myeloid Growth Factors. V.2.2014</a>\n              </li>\n            </ol>\n          </td>\n        </tr>\n      </table>\n        <!-- same as the regimen section of the Composition resource only this version is without the style guide notes -->\n      <h4>CHEMOTHERAPY REGIMEN</h4>\n      <p>\n        <i>21-day cycle for 6 cycles</i>\n      </p>\n      <ul>\n        <li>Gemcitabine 1250 mg/m<sup>2</sup> IV over 30 minutes on Days 1 and 8</li>\n        <li>CARBOplatin AUC 5 IV over 30 minutes on Day 1</li>\n      </ul>\n    </div>"
          },
          "contained": [
           {
            "resourceType": "ActivityDefinition",
            "id": "1111",
            "status": "draft",
            "productCodeableConcept": {
             "coding": [
              {
               "system": "http://www.nlm.nih.gov/research/umls/rxnorm",
               "code": "12574",
               "display": "gemcitabine"
              }
             ],
             "text": "gemcitabine"
            },
            "dosage": [
             {
              "text": "1250 mg/m² IV over 30 minutes",
              "timing": {
               "repeat": {
                "duration": 30,
                "durationUnit": "min"
               }
              },
              "route": {
               "text": "IV"
              },
              "doseAndRate": [
               {
                "type": {
                 "coding": [
                  {
                   "system": "http://terminology.hl7.org/CodeSystem/dose-rate-type",
                   "code": "ordered",
                   "display": "Ordered"
                  }
                 ]
                },
                "doseQuantity": {
                 "value": 1250,
                 "unit": "mg/m²"
                }
               }
              ]
             }
            ]
           },
           {
            "resourceType": "ActivityDefinition",
            "id": "2222",
            "status": "draft",
            "productCodeableConcept": {
             "coding": [
              {
               "system": "http://www.nlm.nih.gov/research/umls/rxnorm",
               "code": "40048",
               "display": "Carboplatin"
              }
             ],
             "text": "CARBOplatin"
            },
            "dosage": [
             {
              "text": "AUC 5 IV over 30 minutes",
              "timing": {
               "repeat": {
                "duration": 30,
                "durationUnit": "min"
               }
              },
              "route": {
               "text": "IV"
              },
              "doseAndRate": [
               {
                "type": {
                 "coding": [
                  {
                   "system": "http://terminology.hl7.org/CodeSystem/dose-rate-type",
                   "code": "ordered",
                   "display": "Ordered"
                  }
                 ]
                },
                "doseQuantity": {
                 "extension": [
                  {
                   "url": "http://example.org/fhir/AUC-dose",
                   "valueInteger": 5
                  }
                 ]
                }
               }
              ]
             }
            ]
           }
          ],
          "identifier": [
           {
            "system": "http://example.org/ordertemplates",
            "value": "KDN5"
           }
          ],
          "version": "1",
          "title": "Gemcitabine/CARBOplatin",
          "type": {
           "text": "Chemotherapy Order Template"
          },
          "status": "draft",
          "experimental": true,
          "publisher": "National Comprehensive Cancer Network, Inc.",
          "useContext": [
           {
            "extension": [
             {
              "url": "http://hl7.org/fhir/StructureDefinition/usagecontext-group",
              "valueString": "A"
             }
            ],
            "code": {
             "system": "http://example.org/fhir/CodeSystem/indications",
             "code": "treamentSetting-or-diseaseStatus"
            },
            "valueCodeableConcept": {
             "text": "Metastatic"
            }
           },
           {
            "extension": [
             {
              "url": "http://hl7.org/fhir/StructureDefinition/usagecontext-group",
              "valueString": "A"
             }
            ],
            "code": {
             "system": "http://example.org/fhir/CodeSystem/indications",
             "code": "disease-or-histology"
            },
            "valueCodeableConcept": {
             "text": "Collecting Duct/Medullary Subtypes"
            }
           },
           {
            "extension": [
             {
              "url": "http://hl7.org/fhir/StructureDefinition/usagecontext-group",
              "valueString": "A"
             }
            ],
            "code": {
             "system": "http://terminology.hl7.org/CodeSystem/usage-context-type",
             "code": "focus"
            },
            "valueCodeableConcept": {
             "text": "Kidney Cancer"
            }
           },
           {
            "extension": [
             {
              "url": "http://hl7.org/fhir/StructureDefinition/usagecontext-group",
              "valueString": "B"
             }
            ],
            "code": {
             "system": "http://example.org/fhir/CodeSystem/indications",
             "code": "treatmentSetting-or-diseaseStatus"
            },
            "valueCodeableConcept": {
             "text": "Relapsed"
            }
           },
           {
            "extension": [
             {
              "url": "http://hl7.org/fhir/StructureDefinition/usagecontext-group",
              "valueString": "B"
             }
            ],
            "code": {
             "system": "http://example.org/fhir/CodeSystem/indications",
             "code": "disease-or-histology"
            },
            "valueCodeableConcept": {
             "text": "Collecting Duct/Medullary Subtypes"
            }
           },
           {
            "extension": [
             {
              "url": "http://hl7.org/fhir/StructureDefinition/usagecontext-group",
              "valueString": "B"
             }
            ],
            "code": {
             "system": "http://terminology.hl7.org/CodeSystem/usage-context-type",
             "code": "focus"
            },
            "valueCodeableConcept": {
             "text": "Kidney Cancer – Collecting Duct/Medullary Subtypes - Metastatic"
            }
           }
          ],
          "copyright": "All rights reserved.",
          "approvalDate": "2016-07-27",
          "lastReviewDate": "2016-07-27",
          "author": [
           {
            "name": "Lee Surprenant"
           }
          ],
          "relatedArtifact": [
           {
            "type": "derived-from",
            "display": "NCCN Guidelines for Kidney Cancer. V.2.2016",
            "url": "http://www.example.org/professionals/physician_gls/PDF/kidney.pdf"
           },
           {
            "type": "citation",
            "_type": {
             "extension": [
              {
               "url": "http://example.org/fhir/regimenReferenceType",
               "valueCode": "a"
              }
             ]
            },
            "citation": "Oudard S, et al. J Urol. 2007;177(5):1698-702",
            "url": "http://www.ncbi.nlm.nih.gov/pubmed/17437788"
           }
          ],
          "action": [
           {
            "selectionBehavior": "exactly-one",
            "action": [
             {
              "selectionBehavior": "all",
              "action": [
               {
                "groupingBehavior": "sentence-group",
                "selectionBehavior": "exactly-one",
                "action": [
                 {
                  "id": "cycle-definition-1",
                  "textEquivalent": "21-day cycle for 6 cycles",
                  "timingTiming": {
                   "repeat": {
                    "count": 6,
                    "duration": 21,
                    "durationUnit": "d"
                   }
                  },
                  "action": [
                   {
                    "id": "action-1",
                    "extension": [
                     {
                      "url": "http://hl7.org/fhir/StructureDefinition/timing-daysOfCycle",
                      "extension": [
                       {
                        "url": "day",
                        "valueInteger": 1
                       },
                       {
                        "url": "day",
                        "valueInteger": 8
                       }
                      ]
                     }
                    ],
                    "textEquivalent": "Gemcitabine 1250 mg/m² IV over 30 minutes on days 1 and 8",
                    "definitionCanonical": "#1111"
                   },
                   {
                    "id": "action-2",
                    "extension": [
                     {
                      "url": "http://hl7.org/fhir/StructureDefinition/timing-daysOfCycle",
                      "extension": [
                       {
                        "url": "day",
                        "valueInteger": 1
                       }
                      ]
                     }
                    ],
                    "textEquivalent": "CARBOplatin AUC 5 IV over 30 minutes on Day 1",
                    "relatedAction": [
                     {
                      "actionId": "action-1",
                      "relationship": "concurrent-with-start"
                     }
                    ],
                    "definitionCanonical": "#2222"
                   }
                  ]
                 }
                ]
               }
              ]
             }
            ]
           }
          ],
          "meta": {
           "tag": [
            {
             "system": "http://terminology.hl7.org/CodeSystem/v3-ActReason",
             "code": "HTEST",
             "display": "test health data"
            }
           ]
          }
         }
        },
        "plandefinition-example.json": {
         "value": {
          "resourceType": "PlanDefinition",
          "id": "low-suicide-risk-order-set",
          "text": {
           "status": "generated",
           "div": "<div xmlns=\"http://www.w3.org/1999/xhtml\">\n         <table class=\"grid dict\">\n            <tr>\n               <td>\n                  <b>Id: </b>\n               </td>\n            </tr>\n            <tr>\n               <td style=\"padding-left: 25px; padding-right: 25px;\">PlanDefinition/low-suicide-risk-order-set</td>\n            </tr>\n         </table>\n         <p/>\n         <table class=\"grid dict\">\n            <tr>\n               <td>\n                  <b>Identifier: </b>\n               </td>\n            </tr>\n            <tr>\n               <td style=\"padding-left: 25px; padding-right: 25px;\">\n                  <b>value: </b>\n                  <span>mmi:low-suicide-risk-order-set</span>\n               </td>\n            </tr>\n         </table>\n         <p/>\n         <table class=\"grid dict\">\n            <tr>\n               <td>\n                  <b>Title: </b>\n               </td>\n            </tr>\n            <tr>\n               <td style=\"padding-left: 25px; padding-right: 25px;\">Low Suicide Risk Order Set</td>\n            </tr>\n         </table>\n         <p/>\n         <table class=\"grid dict\">\n            <tr>\n               <td>\n                  <b>Status: </b>\n               </td>\n            </tr>\n            <tr>\n               <td style=\"padding-left: 25px; padding-right: 25px;\">draft</td>\n            </tr>\n         </table>\n         <p/>\n         <table class=\"grid dict\">\n            <tr>\n               <td>\n                  <b>Description: </b>\n               </td>\n            </tr>\n            <tr>\n               <td style=\"padding-left: 25px; padding-right: 25px;\">Orders to be applied to a patient characterized as low suicide risk.</td>\n            </tr>\n         </table>\n         <p/>\n         <table class=\"grid dict\">\n            <tr>\n               <td>\n                  <b>Purpose: </b>\n               </td>\n            </tr>\n            <tr>\n               <td style=\"padding-left: 25px; padding-right: 25px;\">This order set helps ensure consistent application of appropriate orders for the care of low suicide risk patients.</td>\n            </tr>\n         </table>\n         <p/>\n         <table class=\"grid dict\">\n            <tr>\n               <td>\n                  <b>Usage: </b>\n               </td>\n            </tr>\n            <tr>\n               <td style=\"padding-left: 25px; padding-right: 25px;\">This order set should be applied after assessing a patient for suicide risk, when the findings of that assessment indicate the patient has low suicide risk.</td>\n            </tr>\n         </table>\n         <p/>\n         <table class=\"grid dict\">\n            <tr>\n               <td>\n                  <b>Context: </b>\n               </td>\n            </tr>\n            <tr style=\"vertical-align: top;\">\n               <td style=\"padding-right: 25px;\">\n                  <p style=\"padding-left: 25px; margin-top: 5px; margin-bottom: 5px;\">\n                     <b>system: </b>\n                     <span>http://terminology.hl7.org/CodeSystem/usage-context-type</span>\n                  </p>\n                  <p style=\"padding-left: 25px; margin-top: 5px; margin-bottom: 5px;\">\n                     <b>code: </b>\n                     <span>age</span>\n                  </p>\n                  <p style=\"padding-left: 25px; margin-top: 5px; margin-bottom: 5px;\">\n                     <b>value: </b>\n                     <br/>\n                     <span>\n                        <span>\n                           <span>\n                              <span style=\"padding-left: 25px;\">\n                                 <b>system: </b>\n                                 <span>https://meshb.nlm.nih.gov</span>\n                                 <br/>\n                              </span>\n                              <span style=\"padding-left: 25px;\">\n                                 <b>code: </b>\n                                 <span>D000328</span>\n                                 <br/>\n                              </span>\n                              <span style=\"padding-left: 25px;\">\n                                 <b>display: </b>\n                                 <span>Adult</span>\n                              </span>\n                           </span>\n                        </span>\n                     </span>\n                  </p>\n               </td>\n            </tr>\n         </table>\n         <table class=\"grid dict\">\n            <tr>\n               <td>\n                  <b>Context: </b>\n               </td>\n            </tr>\n            <tr style=\"vertical-align: top;\">\n               <td style=\"padding-right: 25px;\">\n                  <p style=\"padding-left: 25px; margin-top: 5px; margin-bottom: 5px;\">\n                     <b>system: </b>\n                     <span>http://terminology.hl7.org/CodeSystem/usage-context-type</span>\n                  </p>\n                  <p style=\"padding-left: 25px; margin-top: 5px; margin-bottom: 5px;\">\n                     <b>code: </b>\n                     <span>focus</span>\n                  </p>\n                  <p style=\"padding-left: 25px; margin-top: 5px; margin-bottom: 5px;\">\n                     <b>value: </b>\n                     <br/>\n                     <span>\n                        <span>\n                           <span>\n                              <span style=\"padding-left: 25px;\">\n                                 <b>system: </b>\n                                 <span>http://snomed.info/sct</span>\n                                 <br/>\n                              </span>\n                              <span style=\"padding-left: 25px;\">\n                                 <b>code: </b>\n                                 <span>87512008</span>\n                                 <br/>\n                              </span>\n                              <span style=\"padding-left: 25px;\">\n                                 <b>display: </b>\n                                 <span>Mild major depression</span>\n                              </span>\n                           </span>\n                        </span>\n                     </span>\n                  </p>\n               </td>\n            </tr>\n         </table>\n         <table class=\"grid dict\">\n            <tr>\n               <td>\n                  <b>Context: </b>\n               </td>\n            </tr>\n            <tr style=\"vertical-align: top;\">\n               <td style=\"padding-right: 25px;\">\n                  <p style=\"padding-left: 25px; margin-top: 5px; margin-bottom: 5px;\">\n                     <b>system: </b>\n                     <span>http://terminology.hl7.org/CodeSystem/usage-context-type</span>\n                  </p>\n                  <p style=\"padding-left: 25px; margin-top: 5px; margin-bottom: 5px;\">\n                     <b>code: </b>\n                     <span>focus</span>\n                  </p>\n                  <p style=\"padding-left: 25px; margin-top: 5px; margin-bottom: 5px;\">\n                     <b>value: </b>\n                     <br/>\n                     <span>\n                        <span>\n                           <span>\n                              <span style=\"padding-left: 25px;\">\n                                 <b>system: </b>\n                                 <span>http://snomed.info/sct</span>\n                                 <br/>\n                              </span>\n                              <span style=\"padding-left: 25px;\">\n                                 <b>code: </b>\n                                 <span>40379007</span>\n                                 <br/>\n                              </span>\n                              <span style=\"padding-left: 25px;\">\n                                 <b>display: </b>\n                                 <span>Major depression, recurrent, mild</span>\n                              </span>\n                           </span>\n                        </span>\n                     </span>\n                  </p>\n               </td>\n            </tr>\n         </table>\n         <table class=\"grid dict\">\n            <tr>\n               <td>\n                  <b>Context: </b>\n               </td>\n            </tr>\n            <tr style=\"vertical-align: top;\">\n               <td style=\"padding-right: 25px;\">\n                  <p style=\"padding-left: 25px; margin-top: 5px; margin-bottom: 5px;\">\n                     <b>system: </b>\n                     <span>http://terminology.hl7.org/CodeSystem/usage-context-type</span>\n                  </p>\n                  <p style=\"padding-left: 25px; margin-top: 5px; margin-bottom: 5px;\">\n                     <b>code: </b>\n                     <span>focus</span>\n                  </p>\n                  <p style=\"padding-left: 25px; margin-top: 5px; margin-bottom: 5px;\">\n                     <b>value: </b>\n                     <br/>\n                     <span>\n                        <span>\n                           <span>\n                              <span style=\"padding-left: 25px;\">\n                                 <b>system: </b>\n                                 <span>http://snomed.info/sct</span>\n                                 <br/>\n                              </span>\n                              <span style=\"padding-left: 25px;\">\n                                 <b>code: </b>\n                                 <span>394687007</span>\n                                 <br/>\n                              </span>\n                              <span style=\"padding-left: 25px;\">\n                                 <b>display: </b>\n                                 <span>Low suicide risk</span>\n                              </span>\n                           </span>\n                        </span>\n                     </span>\n                  </p>\n               </td>\n            </tr>\n         </table>\n         <table class=\"grid dict\">\n            <tr>\n               <td>\n                  <b>Context: </b>\n               </td>\n            </tr>\n            <tr style=\"vertical-align: top;\">\n               <td style=\"padding-right: 25px;\">\n                  <p style=\"padding-left: 25px; margin-top: 5px; margin-bottom: 5px;\">\n                     <b>system: </b>\n                     <span>http://terminology.hl7.org/CodeSystem/usage-context-type</span>\n                  </p>\n                  <p style=\"padding-left: 25px; margin-top: 5px; margin-bottom: 5px;\">\n                     <b>code: </b>\n                     <span>focus</span>\n                  </p>\n                  <p style=\"padding-left: 25px; margin-top: 5px; margin-bottom: 5px;\">\n                     <b>value: </b>\n                     <br/>\n                     <span>\n                        <span>\n                           <span>\n                              <span style=\"padding-left: 25px;\">\n                                 <b>system: </b>\n                                 <span>http://snomed.info/sct</span>\n                                 <br/>\n                              </span>\n                              <span style=\"padding-left: 25px;\">\n                                 <b>code: </b>\n                                 <span>225337009</span>\n                                 <br/>\n                              </span>\n                              <span style=\"padding-left: 25px;\">\n                                 <b>display: </b>\n                                 <span>Suicide risk assessment</span>\n                              </span>\n                           </span>\n                        </span>\n                     </span>\n                  </p>\n               </td>\n            </tr>\n         </table>\n         <table class=\"grid dict\">\n            <tr>\n               <td>\n                  <b>Context: </b>\n               </td>\n            </tr>\n            <tr style=\"vertical-align: top;\">\n               <td style=\"padding-right: 25px;\">\n                  <p style=\"padding-left: 25px; margin-top: 5px; margin-bottom: 5px;\">\n                     <b>system: </b>\n                     <span>http://terminology.hl7.org/CodeSystem/usage-context-type</span>\n                  </p>\n                  <p style=\"padding-left: 25px; margin-top: 5px; margin-bottom: 5px;\">\n                     <b>code: </b>\n                     <span>user</span>\n                  </p>\n                  <p style=\"padding-left: 25px; margin-top: 5px; margin-bottom: 5px;\">\n                     <b>value: </b>\n                     <br/>\n                     <span>\n                        <span>\n                           <span>\n                              <span style=\"padding-left: 25px;\">\n                                 <b>system: </b>\n                                 <span>http://snomed.info/sct</span>\n                                 <br/>\n                              </span>\n                              <span style=\"padding-left: 25px;\">\n                                 <b>code: </b>\n                                 <span>309343006</span>\n                                 <br/>\n                              </span>\n                              <span style=\"padding-left: 25px;\">\n                                 <b>display: </b>\n                                 <span>Physician</span>\n                              </span>\n                           </span>\n                        </span>\n                     </span>\n                  </p>\n               </td>\n            </tr>\n         </table>\n         <table class=\"grid dict\">\n            <tr>\n               <td>\n                  <b>Context: </b>\n               </td>\n            </tr>\n            <tr style=\"vertical-align: top;\">\n               <td style=\"padding-right: 25px;\">\n                  <p style=\"padding-left: 25px; margin-top: 5px; margin-bottom: 5px;\">\n                     <b>system: </b>\n                     <span>http://terminology.hl7.org/CodeSystem/usage-context-type</span>\n                  </p>\n                  <p style=\"padding-left: 25px; margin-top: 5px; margin-bottom: 5px;\">\n                     <b>code: </b>\n                     <span>venue</span>\n                  </p>\n                  <p style=\"padding-left: 25px; margin-top: 5px; margin-bottom: 5px;\">\n                     <b>value: </b>\n                     <br/>\n                     <span>\n                        <span>\n                           <span>\n                              <span style=\"padding-left: 25px;\">\n                                 <b>system: </b>\n                                 <span>http://snomed.info/sct</span>\n                                 <br/>\n                              </span>\n                              <span style=\"padding-left: 25px;\">\n                                 <b>code: </b>\n                                 <span>440655000</span>\n                                 <br/>\n                              </span>\n                              <span style=\"padding-left: 25px;\">\n                                 <b>display: </b>\n                                 <span>Outpatient environment</span>\n                              </span>\n                           </span>\n                        </span>\n                     </span>\n                  </p>\n               </td>\n            </tr>\n         </table>\n         <p/>\n         <table class=\"grid dict\">\n            <tr>\n               <td>\n                  <b>Topic: </b>\n               </td>\n            </tr>\n            <tr>\n               <td style=\"padding-left: 25px; padding-right: 25px;\">\n                  <span>\n                     <b>text: </b>\n                     <span>Suicide risk assessment</span>\n                  </span>\n               </td>\n            </tr>\n         </table>\n         <p/>\n         <table class=\"grid dict\">\n            <tr>\n               <td>\n                  <b>Contributor: </b>\n               </td>\n            </tr>\n            <tr>\n               <td style=\"padding-left: 25px; padding-right: 25px;\">\n                  <b>\n                     <span>author</span>:\n                  </b>\n               </td>\n            </tr>\n            <tr>\n               <td style=\"padding-left: 50px; padding-right: 25px;\">Motive Medical Intelligence</td>\n            </tr>\n         </table>\n         <p/>\n         <table class=\"grid dict\">\n            <tr>\n               <td>\n                  <b>Library: </b>\n               </td>\n            </tr>\n            <tr>\n               <td style=\"padding-left: 25px; padding-right: 25px;\">\n                  <b>reference: </b>\n                  <span>Library/suiciderisk-orderset-logic</span>\n               </td>\n            </tr>\n            <tr>\n               <td style=\"padding-left: 25px; padding-right: 25px;\">\n                  <b>display: </b>\n                  <span>SuicideRiskLogic</span>\n               </td>\n            </tr>\n         </table>\n         <p/>\n         <h2>Actions</h2>\n         <p style=\"width: 100%;\" class=\"hierarchy\">\n            <span>\n               <b>Step: </b>\n               <br/>\n               <span style=\"padding-left: 25px;\">\n                  <b>title: </b>\n                  <span>Suicide Risk Assessment and Outpatient Management</span>\n                  <br/>\n               </span>\n               <span style=\"padding-left: 25px;\">\n                  <span>\n                     <b>Step: </b>\n                     <br/>\n                     <span style=\"padding-left: 50px;\">\n                        <b>title: </b>\n                        <span>Consults and Referrals</span>\n                        <br/>\n                     </span>\n                     <span style=\"padding-left: 50px;\">\n                        <span>\n                           <b>Step: </b>\n                           <br/>\n                           <span style=\"padding-left: 75px;\">\n                              <b>text: </b>\n                              <span>Refer to outpatient mental health program for evaluation and treatment of mental health conditions now</span>\n                              <br/>\n                           </span>\n                           <span style=\"padding-left: 75px;\">\n                              <b>condition: </b>\n                              <br/>\n                              <span style=\"padding-left: 100px;\">\n                                 <b>reference: </b>\n                                 <br/>\n                                 <span style=\"padding-left: 125px;\">#referralToMentalHealthCare</span>\n                                 <span>\n                                    <span style=\"padding-left: 75px;\">\n                                       <br/>\n                                       <span style=\"padding-left: 100px;\">\n                                          <b>description: </b>\n                                          <span>refer to primary care mental-health integrated care program for evaluation and treatment of mental health conditions now</span>\n                                          <br/>\n                                       </span>\n                                       <span style=\"padding-left: 100px;\">\n                                          <b>category: </b>\n                                          <span>referral</span>\n                                          <br/>\n                                       </span>\n                                    </span>\n                                 </span>\n                              </span>\n                           </span>\n                           <span style=\"padding-left: 50px;\"/>\n                        </span>\n                     </span>\n                  </span>\n                  <span>\n                     <b>Step: </b>\n                     <br/>\n                     <span style=\"padding-left: 50px;\">\n                        <b>title: </b>\n                        <span>Medications</span>\n                        <br/>\n                     </span>\n                     <span style=\"padding-left: 50px;\">\n                        <span>\n                           <b>Step: </b>\n                           <br/>\n                           <span style=\"padding-left: 75px;\">\n                              <b>title: </b>\n                              <span>First-Line Antidepressants</span>\n                              <br/>\n                           </span>\n                           <span style=\"padding-left: 75px;\">\n                              <span>\n                                 <b>Step: </b>\n                                 <br/>\n                                 <span style=\"padding-left: 100px;\">\n                                    <b>title: </b>\n                                    <span>Selective Serotonin Reuptake Inhibitors (Choose a mazimum of one or document reasons for exception)</span>\n                                    <br/>\n                                 </span>\n                                 <span style=\"padding-left: 100px;\">\n                                    <span>\n                                       <b>Step: </b>\n                                       <br/>\n                                       <span style=\"padding-left: 125px;\">\n                                          <b>text: </b>\n                                          <span>citalopram 20 mg tablet 1 tablet oral 1 time daily now (30 table; 3 refills)</span>\n                                          <br/>\n                                       </span>\n                                       <span style=\"padding-left: 125px;\">\n                                          <b>condition: </b>\n                                          <br/>\n                                          <span style=\"padding-left: 150px;\">\n                                             <b>reference: </b>\n                                             <br/>\n                                             <span style=\"padding-left: 175px;\">#citalopramPrescription</span>\n                                             <span/>\n                                             <span>\n                                                <span style=\"padding-left: 125px;\">\n                                                   <br/>\n                                                   <span style=\"padding-left: 150px;\">\n                                                      <b>category: </b>\n                                                      <span>drug</span>\n                                                      <br/>\n                                                   </span>\n                                                </span>\n                                             </span>\n                                             <span/>\n                                             <span/>\n                                          </span>\n                                       </span>\n                                       <span style=\"padding-left: 100px;\"/>\n                                    </span>\n                                    <span>\n                                       <b>Step: </b>\n                                       <br/>\n                                       <span style=\"padding-left: 125px;\">\n                                          <b>text: </b>\n                                          <span>escitalopram 10 mg tablet 1 tablet oral 1 time daily now (30 tablet; 3 refills)</span>\n                                          <br/>\n                                       </span>\n                                       <span style=\"padding-left: 100px;\"/>\n                                    </span>\n                                    <span>\n                                       <b>Step: </b>\n                                       <br/>\n                                       <span style=\"padding-left: 125px;\">\n                                          <b>text: </b>\n                                          <span>fluoxetine 20 mg capsule 1 capsule oral 1 time daily now (30 tablet; 3 refills)</span>\n                                          <br/>\n                                       </span>\n                                       <span style=\"padding-left: 100px;\"/>\n                                    </span>\n                                    <span>\n                                       <b>Step: </b>\n                                       <br/>\n                                       <span style=\"padding-left: 125px;\">\n                                          <b>text: </b>\n                                          <span>paroxetine 20 mg tablet 1 tablet oral 1 time daily now (30 tablet; 3 refills)</span>\n                                          <br/>\n                                       </span>\n                                       <span style=\"padding-left: 100px;\"/>\n                                    </span>\n                                    <span>\n                                       <b>Step: </b>\n                                       <br/>\n                                       <span style=\"padding-left: 125px;\">\n                                          <b>text: </b>\n                                          <span>sertraline 50 mg tablet 1 tablet oral 1 time daily now (30 tablet; 3 refills)</span>\n                                          <br/>\n                                       </span>\n                                       <span style=\"padding-left: 100px;\"/>\n                                    </span>\n                                 </span>\n                              </span>\n                              <span>\n                                 <b>Step: </b>\n                                 <br/>\n                                 <span style=\"padding-left: 125px;\">\n                                    <b>text: </b>\n                                    <span>Dopamine Norepinephrine Reuptake Inhibitors (Choose a maximum of one or document reasons for exception)</span>\n                                    <br/>\n                                 </span>\n                                 <span style=\"padding-left: 75px;\"/>\n                              </span>\n                              <span>\n                                 <b>Step: </b>\n                                 <br/>\n                                 <span style=\"padding-left: 100px;\">\n                                    <b>text: </b>\n                                    <span>Serotonin Norepinephrine Reuptake Inhibitors (Choose a maximum of one or doument reasons for exception)</span>\n                                    <br/>\n                                 </span>\n                                 <span style=\"padding-left: 75px;\"/>\n                              </span>\n                              <span>\n                                 <b>Step: </b>\n                                 <br/>\n                                 <span style=\"padding-left: 100px;\">\n                                    <b>text: </b>\n                                    <span>Norepinephrine-Serotonin Modulators (Choose a maximum of one or document reasons for exception)</span>\n                                    <br/>\n                                 </span>\n                                 <span style=\"padding-left: 100px;\"/>\n                              </span>\n                           </span>\n                        </span>\n                     </span>\n                  </span>\n               </span>\n            </span>\n         </p>\n      </div>"
          },
          "contained": [
           {
            "resourceType": "ActivityDefinition",
            "id": "referralToMentalHealthCare",
            "status": "draft",
            "description": "refer to primary care mental-health integrated care program for evaluation and treatment of mental health conditions now",
            "kind": "ServiceRequest",
            "code": {
             "coding": [
              {
               "system": "http://snomed.info/sct",
               "code": "306206005"
              }
             ],
             "text": "Referral to service (procedure)"
            },
            "timingTiming": {
             "_event": [
              {
               "extension": [
                {
                 "url": "http://hl7.org/fhir/StructureDefinition/cqf-expression",
                 "valueExpression": {
                  "language": "text/cql",
                  "expression": "Now()"
                 }
                }
               ]
              }
             ]
            },
            "participant": [
             {
              "type": "practitioner"
             }
            ]
           },
           {
            "resourceType": "ActivityDefinition",
            "id": "citalopramPrescription",
            "status": "draft",
            "kind": "MedicationRequest",
            "productReference": {
             "reference": "#citalopramMedication"
            },
            "dosage": [
             {
              "text": "1 tablet oral 1 time daily",
              "timing": {
               "repeat": {
                "frequency": 1,
                "period": 1,
                "periodUnit": "d"
               }
              },
              "route": {
               "coding": [
                {
                 "code": "26643006",
                 "display": "Oral route (qualifier value)"
                }
               ],
               "text": "Oral route (qualifier value)"
              },
              "doseAndRate": [
               {
                "type": {
                 "coding": [
                  {
                   "system": "http://terminology.hl7.org/CodeSystem/dose-rate-type",
                   "code": "ordered",
                   "display": "Ordered"
                  }
                 ]
                },
                "doseQuantity": {
                 "value": 1,
                 "unit": "{tbl}"
                }
               }
              ]
             }
            ],
            "dynamicValue": [
             {
              "path": "dispenseRequest.numberOfRepeatsAllowed",
              "expression": {
               "language": "text/cql",
               "expression": "3"
              }
             },
             {
              "path": "dispenseRequest.quantity",
              "expression": {
               "language": "text/cql",
               "expression": "30 '{tbl}'"
              }
             }
            ]
           },
           {
            "resourceType": "Medication",
            "id": "citalopramMedication",
            "code": {
             "coding": [
              {
               "system": "http://www.nlm.nih.gov/research/umls/rxnorm",
               "code": "200371"
              }
             ],
             "text": "citalopram"
            },
            "form": {
             "coding": [
              {
               "system": "http://snomed.info/sct",
               "code": "385055001",
               "display": "Tablet dose form"
              }
             ],
             "text": "Tablet dose form"
            },
            "ingredient": [
             {
              "itemReference": {
               "reference": "#citalopramSubstance"
              },
              "strength": {
               "numerator": {
                "value": 20,
                "unit": "mg"
               },
               "denominator": {
                "value": 1,
                "unit": "{tbl}"
               }
              }
             }
            ]
           },
           {
            "resourceType": "Substance",
            "id": "citalopramSubstance",
            "code": {
             "coding": [
              {
               "system": "http://www.nlm.nih.gov/research/umls/rxnorm",
               "code": "2556"
              }
             ],
             "text": "citalopram"
            }
           }
          ],
          "url": "http://motivemi.com/artifacts/PlanDefinition/low-suicide-risk-order-set",
          "identifier": [
           {
            "use": "official",
            "system": "http://motivemi.com/artifacts",
            "value": "mmi:low-suicide-risk-order-set"
           }
          ],
          "version": "1.0.0",
          "name": "LowSuicideRiskOrderSet",
          "title": "Low Suicide Risk Order Set",
          "status": "active",
          "experimental": true,
          "date": "2015-08-15",
          "publisher": "Motive Medical Intelligence",
          "contact": [
           {
            "telecom": [
             {
              "system": "phone",
              "value": "415-362-4007",
              "use": "work"
             },
             {
              "system": "email",
              "value": "info@motivemi.com",
              "use": "work"
             }
            ]
           }
          ],
          "description": "Orders to be applied to a patient characterized as low suicide risk.",
          "useContext": [
           {
            "code": {
             "system": "http://terminology.hl7.org/CodeSystem/usage-context-type",
             "code": "age"
            },
            "valueCodeableConcept": {
             "coding": [
              {
               "system": "https://meshb.nlm.nih.gov",
               "code": "D000328",
               "display": "Adult"
              }
             ]
            }
           },
           {
            "code": {
             "system": "http://terminology.hl7.org/CodeSystem/usage-context-type",
             "code": "focus"
            },
            "valueCodeableConcept": {
             "coding": [
              {
               "system": "http://snomed.info/sct",
               "code": "87512008",
               "display": "Mild major depression"
              }
             ]
            }
           },
           {
            "code": {
             "system": "http://terminology.hl7.org/CodeSystem/usage-context-type",
             "code": "focus"
            },
            "valueCodeableConcept": {
             "coding": [
              {
               "system": "http://snomed.info/sct",
               "code": "40379007",
               "display": "Major depression, recurrent, mild"
              }
             ]
            }
           },
           {
            "code": {
             "system": "http://terminology.hl7.org/CodeSystem/usage-context-type",
             "code": "focus"
            },
            "valueCodeableConcept": {
             "coding": [
              {
               "system": "http://snomed.info/sct",
               "code": "394687007",
               "display": "Low suicide risk"
              }
             ]
            }
           },
           {
            "code": {
             "system": "http://terminology.hl7.org/CodeSystem/usage-context-type",
             "code": "focus"
            },
            "valueCodeableConcept": {
             "coding": [
              {
               "system": "http://snomed.info/sct",
               "code": "225337009",
               "display": "Suicide risk assessment"
              }
             ]
            }
           },
           {
            "code": {
             "system": "http://terminology.hl7.org/CodeSystem/usage-context-type",
             "code": "user"
            },
            "valueCodeableConcept": {
             "coding": [
              {
               "system": "http://snomed.info/sct",
               "code": "309343006",
               "display": "Physician"
              }
             ]
            }
           },
           {
            "code": {
             "system": "http://terminology.hl7.org/CodeSystem/usage-context-type",
             "code": "venue"
            },
            "valueCodeableConcept": {
             "coding": [
              {
               "system": "http://snomed.info/sct",
               "code": "440655000",
               "display": "Outpatient environment"
              }
             ]
            }
           }
          ],
          "jurisdiction": [
           {
            "coding": [
             {
              "system": "urn:iso:std:iso:3166",
              "code": "US"
             }
            ]
           }
          ],
          "purpose": "This order set helps ensure consistent application of appropriate orders for the care of low suicide risk patients.",
          "usage": "This order set should be applied after assessing a patient for suicide risk, when the findings of that assessment indicate the patient has low suicide risk.",
          "copyright": "© Copyright 2016 Motive Medical Intelligence. All rights reserved.",
          "approvalDate": "2016-03-12",
          "lastReviewDate": "2016-08-15",
          "effectivePeriod": {
           "start": "2016-01-01",
           "end": "2017-12-31"
          },
          "topic": [
           {
            "text": "Suicide risk assessment"
           }
          ],
          "author": [
           {
            "name": "Motive Medical Intelligence",
            "telecom": [
             {
              "system": "phone",
              "value": "415-362-4007",
              "use": "work"
             },
             {
              "system": "email",
              "value": "info@motivemi.com",
              "use": "work"
             }
            ]
           }
          ],
          "relatedArtifact": [
           {
            "type": "derived-from",
            "display": "Practice Guideline for the Treatment of Patients with Major Depressive Disorder",
            "url": "http://psychiatryonline.org/pb/assets/raw/sitewide/practice_guidelines/guidelines/mdd.pdf"
           },
           {
            "type": "composed-of",
            "resource": "ActivityDefinition/referralPrimaryCareMentalHealth"
           },
           {
            "type": "composed-of",
            "resource": "ActivityDefinition/citalopramPrescription"
           }
          ],
          "library": [
           "Library/suiciderisk-orderset-logic"
          ],
          "action": [
           {
            "title": "Suicide Risk Assessment and Outpatient Management",
            "action": [
             {
              "title": "Consults and Referrals",
              "groupingBehavior": "logical-group",
              "selectionBehavior": "any",
              "action": [
               {
                "textEquivalent": "Refer to outpatient mental health program for evaluation and treatment of mental health conditions now",
                "definitionCanonical": "#referralToMentalHealthCare",
                "dynamicValue": [
                 {
                  "path": "timing.event",
                  "expression": {
                   "language": "text/cql",
                   "expression": "Now()"
                  }
                 },
                 {
                  "path": "specialty",
                  "expression": {
                   "language": "text/cql",
                   "expression": "Code '261QM0850X' from SuicideRiskLogic.\"NUCC Provider Taxonomy\" display 'Adult Mental Health'"
                  }
                 },
                 {
                  "path": "occurrenceDateTime",
                  "expression": {
                   "language": "text/cql",
                   "expression": "SuicideRiskLogic.ServiceRequestFulfillmentTime"
                  }
                 },
                 {
                  "path": "subject",
                  "expression": {
                   "language": "text/cql",
                   "expression": "SuicideRiskLogic.Patient"
                  }
                 },
                 {
                  "path": "requester.agent",
                  "expression": {
                   "language": "text/cql",
                   "expression": "SuicideRiskLogic.Practitioner"
                  }
                 },
                 {
                  "path": "reasonCode",
                  "expression": {
                   "language": "text/cql",
                   "expression": "SuicideRiskLogic.RiskAssessmentScore"
                  }
                 },
                 {
                  "path": "reasonReference",
                  "expression": {
                   "language": "text/cql",
                   "expression": "SuicideRiskLogic.RiskAssessment"
                  }
                 }
                ]
               }
              ]
             },
             {
              "title": "Medications",
              "groupingBehavior": "logical-group",
              "selectionBehavior": "at-most-one",
              "action": [
               {
                "title": "First-Line Antidepressants",
                "documentation": [
                 {
                  "type": "citation",
                  "document": {
                   "extension": [
                    {
                     "url": "http://hl7.org/fhir/StructureDefinition/cqf-qualityOfEvidence",
                     "valueCodeableConcept": {
                      "coding": [
                       {
                        "system": "http://terminology.hl7.org/CodeSystem/evidence-quality",
                        "code": "high"
                       }
                      ],
                      "text": "High Quality"
                     }
                    }
                   ],
                   "contentType": "text/html",
                   "url": "http://psychiatryonline.org/pb/assets/raw/sitewide/practice_guidelines/guidelines/mdd.pdf",
                   "title": "Practice Guideline for the Treatment of Patients with Major Depressive Disorder"
                  }
                 }
                ],
                "groupingBehavior": "logical-group",
                "selectionBehavior": "at-most-one",
                "action": [
                 {
                  "title": "Selective Serotonin Reuptake Inhibitors (Choose a mazimum of one or document reasons for exception)",
                  "documentation": [
                   {
                    "type": "citation",
                    "document": {
                     "contentType": "text/html",
                     "url": "http://dailymed.nlm.nih.gov/dailymed/drugInfo.cfm?setid=6daeb45c-451d-b135-bf8f-2d6dff4b6b01",
                     "title": "National Library of Medicine. DailyMed website. CITALOPRAM- citalopram hydrobromide tablet, film coated."
                    }
                   }
                  ],
                  "groupingBehavior": "logical-group",
                  "selectionBehavior": "at-most-one",
                  "action": [
                   {
                    "textEquivalent": "citalopram 20 mg tablet 1 tablet oral 1 time daily now (30 table; 3 refills)",
                    "definitionCanonical": "#citalopramPrescription",
                    "dynamicValue": [
                     {
                      "path": "status",
                      "expression": {
                       "language": "text/cql",
                       "expression": "'draft'"
                      }
                     },
                     {
                      "path": "patient",
                      "expression": {
                       "language": "text/cql",
                       "expression": "SuicideRiskLogic.Patient"
                      }
                     },
                     {
                      "path": "prescriber",
                      "expression": {
                       "language": "text/cql",
                       "expression": "SuicideRiskLogic.Practitioner"
                      }
                     },
                     {
                      "path": "reasonCode",
                      "expression": {
                       "language": "text/cql",
                       "expression": "SuicideRiskLogic.RiskAssessmentScore"
                      }
                     },
                     {
                      "path": "reasonReference",
                      "expression": {
                       "language": "text/cql",
                       "expression": "SuicideRiskLogic.RiskAssessment"
                      }
                     }
                    ]
                   },
                   {
                    "textEquivalent": "escitalopram 10 mg tablet 1 tablet oral 1 time daily now (30 tablet; 3 refills)"
                   },
                   {
                    "textEquivalent": "fluoxetine 20 mg capsule 1 capsule oral 1 time daily now (30 tablet; 3 refills)"
                   },
                   {
                    "textEquivalent": "paroxetine 20 mg tablet 1 tablet oral 1 time daily now (30 tablet; 3 refills)"
                   },
                   {
                    "textEquivalent": "sertraline 50 mg tablet 1 tablet oral 1 time daily now (30 tablet; 3 refills)"
                   }
                  ]
                 },
                 {
                  "textEquivalent": "Dopamine Norepinephrine Reuptake Inhibitors (Choose a maximum of one or document reasons for exception)"
                 },
                 {
                  "textEquivalent": "Serotonin Norepinephrine Reuptake Inhibitors (Choose a maximum of one or doument reasons for exception)"
                 },
                 {
                  "textEquivalent": "Norepinephrine-Serotonin Modulators (Choose a maximum of one or document reasons for exception)"
                 }
                ]
               }
              ]
             }
            ]
           }
          ]
         }
        }
       }
      }
     }
    }
   },
   "get": {
    "tags": [
     "PlanDefinition"
    ],
    "parameters": [
     {
      "name": "composed-of",
      "in": "query",
      "schema": {
       "type": "string"
      },
      "description": "What resource is being referenced"
     },
     {
      "name": "context",
      "in": "query",
      "schema": {
       "type": "string"
      },
      "description": "A use context assigned to the activity definition"
     },
     {
      "name": "context-quantity",
      "in": "query",
      "schema": {
       "type": "integer"
      },
      "description": "A quantity- or range-valued use context assigned to the activity definition"
     },
     {
      "name": "context-type",
      "in": "query",
      "schema": {
       "type": "string"
      },
      "description": "A type of use context assigned to the activity definition"
     },
     {
      "name": "context-type-quantity",
      "in": "query",
      "schema": {
       "type": "string"
      },
      "description": "A use context type and quantity- or range-based value assigned to the activity definition"
     },
     {
      "name": "context-type-value",
      "in": "query",
      "schema": {
       "type": "string"
      },
      "description": "A use context type and value assigned to the activity definition"
     },
     {
      "name": "date",
      "in": "query",
      "schema": {
       "type": "string",
       "format": "date"
      },
      "description": "The activity definition publication date"
     },
     {
      "name": "definition",
      "in": "query",
      "schema": {
       "type": "string"
      },
      "description": "Activity or plan definitions used by plan definition"
     },
     {
      "name": "depends-on",
      "in": "query",
      "schema": {
       "type": "string"
      },
      "description": "What resource is being referenced"
     },
     {
      "name": "derived-from",
      "in": "query",
      "schema": {
       "type": "string"
      },
      "description": "What resource is being referenced"
     },
     {
      "name": "description",
      "in": "query",
      "schema": {
       "type": "string"
      },
      "description": "The description of the activity definition"
     },
     {
      "name": "effective",
      "in": "query",
      "schema": {
       "type": "string",
       "format": "date"
      },
      "description": "The time during which the activity definition is intended to be in use"
     },
     {
      "name": "identifier",
      "in": "query",
      "schema": {
       "type": "string"
      },
      "description": "Account number"
     },
     {
      "name": "jurisdiction",
      "in": "query",
      "schema": {
       "type": "string"
      },
      "description": "Intended jurisdiction for the activity definition"
     },
     {
      "name": "name",
      "in": "query",
      "schema": {
       "type": "string"
      },
      "description": "Human-readable label"
     },
     {
      "name": "predecessor",
      "in": "query",
      "schema": {
       "type": "string"
      },
      "description": "What resource is being referenced"
     },
     {
      "name": "publisher",
      "in": "query",
      "schema": {
       "type": "string"
      },
      "description": "Name of the publisher of the activity definition"
     },
     {
      "name": "status",
      "in": "query",
      "schema": {
       "type": "string"
      },
      "description": "active | inactive | entered-in-error | on-hold | unknown"
     },
     {
      "name": "successor",
      "in": "query",
      "schema": {
       "type": "string"
      },
      "description": "What resource is being referenced"
     },
     {
      "name": "title",
      "in": "query",
      "schema": {
       "type": "string"
      },
      "description": "The human-friendly name of the activity definition"
     },
     {
      "name": "topic",
      "in": "query",
      "schema": {
       "type": "string"
      },
      "description": "Topics associated with the module"
     },
     {
      "name": "type",
      "in": "query",
      "schema": {
       "type": "string"
      },
      "description": "E.g. patient, expense, depreciation"
     },
     {
      "name": "url",
      "in": "query",
      "schema": {
       "type": "string"
      },
      "description": "The uri that identifies the activity definition"
     },
     {
      "name": "version",
      "in": "query",
      "schema": {
       "type": "string"
      },
      "description": "The business version of the activity definition"
     },
     {
      "name": "_format",
      "in": "query",
      "x-consoleDefault": "application/json",
      "schema": {
       "type": "string"
      },
      "description": ""
     }
    ],
    "responses": {
     "200": {
      "description": "Success",
      "content": {
       "application/fhir+json": {
        "schema": {
         "type": "array",
         "items": {
          "$ref": "#/components/schemas/PlanDefinition"
         }
        }
       }
      }
     }
    }
   }
  },
  "/PlanDefinition/{id}": {
   "parameters": [
    {
     "in": "path",
     "required": true,
     "name": "id",
     "schema": {
      "type": "string"
     }
    }
   ],
   "get": {
    "tags": [
     "PlanDefinition"
    ],
    "parameters": [],
    "responses": {
     "200": {
      "description": "Success",
      "content": {
       "application/fhir+json": {
        "schema": {
         "$ref": "#/components/schemas/PlanDefinition"
        }
       }
      }
     }
    }
   },
   "put": {
    "tags": [
     "PlanDefinition"
    ],
    "responses": {
     "200": {
      "description": "Success",
      "content": {}
     }
    },
    "requestBody": {
     "content": {
      "application/fhir+json": {
       "schema": {
        "$ref": "#/components/schemas/PlanDefinition"
       }
      }
     }
    }
   },
   "delete": {
    "tags": [
     "PlanDefinition"
    ],
    "parameters": [],
    "responses": {
     "200": {
      "description": "Success",
      "content": {}
     }
    }
   }
  },
  "/PlanDefinition/{id}/_history": {
   "get": {
    "tags": [
     "PlanDefinition"
    ],
    "parameters": [
     {
      "name": "id",
      "in": "path",
      "required": true,
      "schema": {
       "type": "string"
      }
     },
     {
      "name": "_count",
      "in": "query",
      "schema": {
       "type": "string"
      }
     },
     {
      "name": "_since",
      "in": "query",
      "schema": {
       "type": "string"
      }
     }
    ],
    "responses": {
     "200": {
      "description": "Success",
      "content": {
       "application/fhir+json": {
        "schema": {
         "type": "array",
         "items": {
          "$ref": "#/components/schemas/PlanDefinition"
         }
        }
       }
      }
     }
    }
   }
  },
  "/PlanDefinition/{id}/_history/{vid}": {
   "get": {
    "tags": [
     "PlanDefinition"
    ],
    "parameters": [
     {
      "name": "id",
      "in": "path",
      "required": true,
      "schema": {
       "type": "string"
      }
     },
     {
      "name": "vid",
      "in": "path",
      "required": true,
      "schema": {
       "type": "string"
      }
     }
    ],
    "responses": {
     "200": {
      "description": "Success",
      "content": {
       "application/fhir+json": {
        "schema": {
         "$ref": "#/components/schemas/PlanDefinition"
        }
       }
      }
     }
    }
   }
  }
 },
 "tags": [
  {
   "name": "PlanDefinition"
  }
 ]
}